Timestamp,Acc_X,Acc_Y,Acc_Z,Latitude,Longitude
2026-06-01T10:55:35.348539,-0.08,0.28,-0.98,51.5363052,-0.012272
2026-06-01T10:55:35.407906,-0.1,0.23,-0.98,51.5363052,-0.012272
2026-06-01T10:55:35.500797,-0.07,0.24,-0.98,51.5363052,-0.012272
2026-06-01T10:55:35.558281,-0.09,0.26,-0.98,51.5363052,-0.012272
2026-06-01T10:55:35.619209,-0.11,0.23,-0.96,51.5363052,-0.012272
2026-06-01T10:55:35.679050,-0.09,0.21,-0.98,51.5363052,-0.012272
2026-06-01T10:55:35.740443,-0.06,0.22,-0.98,51.5363052,-0.012272
2026-06-01T10:55:35.827068,-0.09,0.23,-0.97,51.5363052,-0.012272
2026-06-01T10:55:35.887485,-0.1,0.22,-0.97,51.5363052,-0.012272
2026-06-01T10:55:35.950473,-0.08,0.25,-0.98,51.5363052,-0.012272
2026-06-01T10:55:36.011215,-0.11,0.26,-0.99,51.5363052,-0.012272
2026-06-01T10:55:36.070296,-0.1,0.3,-1,51.5363052,-0.012272
2026-06-01T10:55:36.160961,-0.09,0.25,-0.96,51.5363052,-0.012272
2026-06-01T10:55:36.218646,-0.09,0.23,-0.97,51.5363052,-0.012272
2026-06-01T10:55:36.278559,-0.11,0.21,-0.98,51.5363052,-0.012272
2026-06-01T10:55:36.337272,-0.12,0.21,-0.98,51.5363058,-0.0122687
2026-06-01T10:55:36.401052,-0.13,0.19,-0.99,51.5363058,-0.0122687
2026-06-01T10:55:36.488196,-0.1,0.22,-0.98,51.5363058,-0.0122687
2026-06-01T10:55:36.578538,-0.11,0.23,-0.97,51.5363058,-0.0122687
2026-06-01T10:55:36.607630,-0.11,0.21,-0.99,51.5363058,-0.0122687
2026-06-01T10:55:36.668726,-0.1,0.21,-0.98,51.5363058,-0.0122687
2026-06-01T10:55:36.759997,-0.1,0.23,-0.98,51.5363058,-0.0122687
2026-06-01T10:55:36.822717,-0.09,0.23,-0.99,51.5363058,-0.0122687
2026-06-01T10:55:36.876686,-0.08,0.24,-0.98,51.5363058,-0.0122687
2026-06-01T10:55:36.936577,-0.08,0.24,-0.98,51.5363058,-0.0122687
2026-06-01T10:55:36.999315,-0.08,0.23,-0.97,51.5363058,-0.0122687
2026-06-01T10:55:37.090039,-0.08,0.25,-0.98,51.5363058,-0.0122687
2026-06-01T10:55:37.147397,-0.05,0.27,-0.98,51.5363058,-0.0122687
2026-06-01T10:55:37.207483,-0.04,0.28,-0.97,51.5363058,-0.0122687
2026-06-01T10:55:37.268941,-0.08,0.24,-0.99,51.5363058,-0.0122687
2026-06-01T10:55:37.327475,-0.08,0.23,-0.98,51.5363058,-0.0122687
2026-06-01T10:55:37.420499,-0.1,0.25,-0.99,51.5363093,-0.0122659
2026-06-01T10:55:37.479874,-0.1,0.24,-0.96,51.5363093,-0.0122659
2026-06-01T10:55:37.538645,-0.01,0.26,-0.99,51.5363093,-0.0122659
2026-06-01T10:55:37.597736,0.11,0.32,-1,51.5363093,-0.0122659
2026-06-01T10:55:37.657255,0.03,0.23,-0.96,51.5363093,-0.0122659
2026-06-01T10:55:37.749095,-0.28,0.05,-1.01,51.5363093,-0.0122659
2026-06-01T10:55:37.808150,-0.11,0.16,-0.98,51.5363093,-0.0122659
2026-06-01T10:55:37.870550,-0.12,0.18,-1.04,51.5363093,-0.0122659
2026-06-01T10:55:37.928299,-0.19,0.2,-0.95,51.5363093,-0.0122659
2026-06-01T10:55:37.988081,-0.37,0.18,-1,51.5363093,-0.0122659
2026-06-01T10:55:38.078799,-0.46,0.1,-0.9,51.5363093,-0.0122659
2026-06-01T10:55:38.139181,-0.22,0.27,-1.01,51.5363093,-0.0122659
2026-06-01T10:55:38.198751,-0.16,0.22,-0.93,51.5363093,-0.0122659
2026-06-01T10:55:38.260887,-0.1,0.26,-0.97,51.5363093,-0.0122659
2026-06-01T10:55:38.317327,-0.27,0.16,-0.96,51.5363093,-0.0122659
2026-06-01T10:55:38.409445,-0.36,0.16,-0.91,51.5363108,-0.0122613
2026-06-01T10:55:38.468430,-0.16,0.39,-0.99,51.5363108,-0.0122613
2026-06-01T10:55:38.529128,-0.26,0.43,-1.05,51.5363108,-0.0122613
2026-06-01T10:55:38.590250,-0.19,0.3,-0.99,51.5363108,-0.0122613
2026-06-01T10:55:38.648400,-0.27,0.3,-0.89,51.5363108,-0.0122613
2026-06-01T10:55:38.737407,-0.25,0.42,-0.9,51.5363108,-0.0122613
2026-06-01T10:55:38.800508,-0.2,0.49,-0.91,51.5363108,-0.0122613
2026-06-01T10:55:38.859512,-0.15,0.43,-0.92,51.5363108,-0.0122613
2026-06-01T10:55:38.921561,-0.16,0.22,-1.02,51.5363108,-0.0122613
2026-06-01T10:55:39.011568,0.11,0.33,-1.06,51.5363108,-0.0122613
2026-06-01T10:55:39.068798,-0.14,0.21,-1.09,51.5363108,-0.0122613
2026-06-01T10:55:39.128284,0.16,0.15,-1.07,51.5363108,-0.0122613
2026-06-01T10:55:39.188232,0.06,0.34,-0.93,51.5363108,-0.0122613
2026-06-01T10:55:39.248510,-0.06,0.3,-0.93,51.5363108,-0.0122613
2026-06-01T10:55:39.337060,-0.02,0.43,-1.13,51.5363182,-0.0122699
2026-06-01T10:55:39.399611,0.03,0.34,-0.89,51.5363182,-0.0122699
2026-06-01T10:55:39.459954,-0.08,0.05,-0.99,51.5363182,-0.0122699
2026-06-01T10:55:39.520793,-0.08,0.26,-0.98,51.5363182,-0.0122699
2026-06-01T10:55:39.578829,-0.03,0.37,-1.1,51.5363182,-0.0122699
2026-06-01T10:55:39.670296,0.08,0.34,-1.07,51.5363182,-0.0122699
2026-06-01T10:55:39.728406,-0.09,0.18,-1.1,51.5363182,-0.0122699
2026-06-01T10:55:39.789672,0.03,0.22,-0.91,51.5363182,-0.0122699
2026-06-01T10:55:39.850486,-0.02,0.21,-0.99,51.5363182,-0.0122699
2026-06-01T10:55:39.911556,0.03,0.22,-1.02,51.5363182,-0.0122699
2026-06-01T10:55:40.001084,-0.14,0.29,-0.97,51.5363182,-0.0122699
2026-06-01T10:55:40.058109,0.09,0.35,-0.97,51.5363182,-0.0122699
2026-06-01T10:55:40.117660,0.05,0.34,-0.96,51.5363182,-0.0122699
2026-06-01T10:55:40.178927,-0.28,0.14,-0.95,51.5363182,-0.0122699
2026-06-01T10:55:40.238417,-0.06,0.41,-0.92,51.5363182,-0.0122699
2026-06-01T10:55:40.327120,0,0.34,-0.85,51.5363182,-0.0122699
2026-06-01T10:55:40.389004,-0.09,0.32,-1.06,51.5363268,-0.012285
2026-06-01T10:55:40.449143,-0.04,0.32,-0.96,51.5363268,-0.012285
2026-06-01T10:55:40.510317,-0.04,0.29,-0.96,51.5363268,-0.012285
2026-06-01T10:55:40.571519,-0.06,0.32,-0.95,51.5363268,-0.012285
2026-06-01T10:55:40.663243,0.02,0.28,-1.01,51.5363268,-0.012285
2026-06-01T10:55:40.718182,0.06,0.38,-1.01,51.5363268,-0.012285
2026-06-01T10:55:40.784779,-0.1,0.39,-0.87,51.5363268,-0.012285
2026-06-01T10:55:40.838068,-0.07,0.46,-0.87,51.5363268,-0.012285
2026-06-01T10:55:40.930610,0.17,0.32,-1.01,51.5363268,-0.012285
2026-06-01T10:55:41.023767,0.02,0.31,-0.96,51.5363268,-0.012285
2026-06-01T10:55:41.047907,-0.14,0.25,-0.99,51.5363268,-0.012285
2026-06-01T10:55:41.110553,0.03,0.27,-0.92,51.5363268,-0.012285
2026-06-01T10:55:41.170029,-0.13,0.37,-0.92,51.5363268,-0.012285
2026-06-01T10:55:41.260292,-0.04,0.43,-0.96,51.5363268,-0.012285
2026-06-01T10:55:41.317370,-0.09,0.26,-0.84,51.5363268,-0.012285
2026-06-01T10:55:41.381381,0.04,0.11,-1.16,51.5363343,-0.0123005
2026-06-01T10:55:41.439902,-0.01,0.43,-1.04,51.5363343,-0.0123005
2026-06-01T10:55:41.502867,-0.13,0.56,-0.93,51.5363343,-0.0123005
2026-06-01T10:55:41.590142,-0.16,0.38,-0.97,51.5363343,-0.0123005
2026-06-01T10:55:41.649446,0.04,0.23,-1.11,51.5363343,-0.0123005
2026-06-01T10:55:41.710177,-0.04,0.52,-1.07,51.5363343,-0.0123005
2026-06-01T10:55:41.772339,-0.25,0.64,-0.95,51.5363343,-0.0123005
2026-06-01T10:55:41.829858,-0.22,0.17,-0.78,51.5363343,-0.0123005
2026-06-01T10:55:41.922842,0.18,0.12,-0.98,51.5363343,-0.0123005
2026-06-01T10:55:41.980898,0.01,0.2,-1.15,51.5363343,-0.0123005
2026-06-01T10:55:42.042445,-0.11,0.3,-1.03,51.5363343,-0.0123005
2026-06-01T10:55:42.101107,-0.1,0.45,-0.96,51.5363343,-0.0123005
2026-06-01T10:55:42.160296,0.03,0.34,-1.01,51.5363343,-0.0123005
2026-06-01T10:55:42.249738,-0.01,0.4,-1.01,51.5363343,-0.0123005
2026-06-01T10:55:42.311333,-0.14,0.3,-0.94,51.5363343,-0.0123005
2026-06-01T10:55:42.368096,0.09,0.36,-0.94,51.5363475,-0.0123268
2026-06-01T10:55:42.430518,-0.13,0.26,-1.06,51.5363475,-0.0123268
2026-06-01T10:55:42.492347,-0.05,0.28,-1.13,51.5363475,-0.0123268
2026-06-01T10:55:42.581388,0.03,0.34,-0.94,51.5363475,-0.0123268
2026-06-01T10:55:42.639161,0.03,0.34,-0.96,51.5363475,-0.0123268
2026-06-01T10:55:42.700156,0.02,0.33,-1.02,51.5363475,-0.0123268
2026-06-01T10:55:42.757677,-0.03,0.27,-1.01,51.5363475,-0.0123268
2026-06-01T10:55:42.847807,0.01,0.3,-0.97,51.5363475,-0.0123268
2026-06-01T10:55:42.906734,0,0.31,-1.05,51.5363475,-0.0123268
2026-06-01T10:55:42.970841,-0.09,0.3,-0.89,51.5363475,-0.0123268
2026-06-01T10:55:43.029203,-0.14,0.2,-1.05,51.5363475,-0.0123268
2026-06-01T10:55:43.118325,-0.17,0.28,-1.17,51.5363475,-0.0123268
2026-06-01T10:55:43.177729,-0.05,0.31,-0.92,51.5363475,-0.0123268
2026-06-01T10:55:43.238271,0.04,0.26,-1.02,51.5363475,-0.0123268
2026-06-01T10:55:43.301726,-0.05,0.3,-0.78,51.5363475,-0.0123268
2026-06-01T10:55:43.358032,-0.03,0.24,-0.86,51.5363623,-0.0123583
2026-06-01T10:55:43.450023,-0.09,0.3,-0.98,51.5363623,-0.0123583
2026-06-01T10:55:43.508012,0,0.3,-0.97,51.5363623,-0.0123583
2026-06-01T10:55:43.567916,0.04,0.28,-1.1,51.5363623,-0.0123583
2026-06-01T10:55:43.628421,-0.08,0.45,-0.84,51.5363623,-0.0123583
2026-06-01T10:55:43.688108,-0.01,0.35,-0.95,51.5363623,-0.0123583
2026-06-01T10:55:43.781008,-0.09,0.23,-1.02,51.5363623,-0.0123583
2026-06-01T10:55:43.837043,-0.14,0.56,-0.84,51.5363623,-0.0123583
2026-06-01T10:55:43.896976,0.13,0.27,-1.07,51.5363623,-0.0123583
2026-06-01T10:55:43.957191,-0.12,0.56,-1.32,51.5363623,-0.0123583
2026-06-01T10:55:44.017911,-0.03,0.08,-0.92,51.5363623,-0.0123583
2026-06-01T10:55:44.107226,-0.02,0.36,-0.8,51.5363623,-0.0123583
2026-06-01T10:55:44.167389,0.02,0.38,-1.01,51.5363623,-0.0123583
2026-06-01T10:55:44.230079,-0.04,0.26,-1.06,51.5363623,-0.0123583
2026-06-01T10:55:44.288656,0,0.23,-0.94,51.5363623,-0.0123583
2026-06-01T10:55:44.347262,-0.18,0.39,-0.97,51.5363804,-0.012389
2026-06-01T10:55:44.439259,-0.08,0.27,-1.01,51.5363804,-0.012389
2026-06-01T10:55:44.499500,0.02,0.23,-1.07,51.5363804,-0.012389
2026-06-01T10:55:44.559679,-0.14,0.39,-0.88,51.5363804,-0.012389
2026-06-01T10:55:44.621362,-0.08,0.26,-1,51.5363804,-0.012389
2026-06-01T10:55:44.678917,0.05,0.32,-1.1,51.5363804,-0.012389
2026-06-01T10:55:44.769266,0.04,0.31,-1,51.5363804,-0.012389
2026-06-01T10:55:44.829625,-0.02,0.25,-0.95,51.5363804,-0.012389
2026-06-01T10:55:44.888742,-0.1,0.26,-0.9,51.5363804,-0.012389
2026-06-01T10:55:44.947760,0.04,0.32,-0.95,51.5363804,-0.012389
2026-06-01T10:55:45.036278,0.01,0.35,-1,51.5363804,-0.012389
2026-06-01T10:55:45.096522,0.02,0.32,-1.01,51.5363804,-0.012389
2026-06-01T10:55:45.156693,-0.01,0.29,-0.99,51.5363804,-0.012389
2026-06-01T10:55:45.248683,-0.18,0.43,-0.74,51.5363804,-0.012389
2026-06-01T10:55:45.307412,0.19,0.21,-1.03,51.5363804,-0.012389
2026-06-01T10:55:45.367581,0.07,0.24,-1,51.536404,-0.0124159
2026-06-01T10:55:45.426745,0.1,0.25,-1.04,51.536404,-0.0124159
2026-06-01T10:55:45.486488,0.04,0.33,-0.96,51.536404,-0.0124159
2026-06-01T10:55:45.549492,0.04,0.19,-0.97,51.536404,-0.0124159
2026-06-01T10:55:45.639302,-0.08,0.36,-0.99,51.536404,-0.0124159
2026-06-01T10:55:45.697072,-0.01,0.27,-0.84,51.536404,-0.0124159
2026-06-01T10:55:45.757093,-0.06,0.44,-1.06,51.536404,-0.0124159
2026-06-01T10:55:45.815888,0,0.37,-0.91,51.536404,-0.0124159
2026-06-01T10:55:45.876175,-0.02,0.25,-0.99,51.536404,-0.0124159
2026-06-01T10:55:45.966604,0.08,0.23,-1.07,51.536404,-0.0124159
2026-06-01T10:55:46.027023,-0.05,0.38,-0.87,51.536404,-0.0124159
2026-06-01T10:55:46.087040,-0.04,0.24,-1.08,51.536404,-0.0124159
2026-06-01T10:55:46.147217,0.02,0.36,-0.93,51.536404,-0.0124159
2026-06-01T10:55:46.206978,-0.09,0.28,-0.95,51.536404,-0.0124159
2026-06-01T10:55:46.298863,0.01,0.24,-0.98,51.536404,-0.0124159
2026-06-01T10:55:46.357045,-0.04,0.45,-0.95,51.5364275,-0.0124441
2026-06-01T10:55:46.417256,0,0.16,-1.06,51.5364275,-0.0124441
2026-06-01T10:55:46.476960,-0.05,0.33,-0.95,51.5364275,-0.0124441
2026-06-01T10:55:46.536921,-0.02,0.22,-0.98,51.5364275,-0.0124441
2026-06-01T10:55:46.627194,0.03,0.37,-1.05,51.5364275,-0.0124441
2026-06-01T10:55:46.686704,0.12,0.23,-0.94,51.5364275,-0.0124441
2026-06-01T10:55:46.776279,0.21,0.21,-0.99,51.5364275,-0.0124441
2026-06-01T10:55:46.805866,-0.01,0.4,-1.04,51.5364275,-0.0124441
2026-06-01T10:55:46.865992,-0.03,0.29,-1.04,51.5364275,-0.0124441
2026-06-01T10:55:46.956013,-0.13,0.26,-0.78,51.5364275,-0.0124441
2026-06-01T10:55:47.016904,-0.04,0.27,-0.9,51.5364275,-0.0124441
2026-06-01T10:55:47.166010,-0.06,0.25,-0.93,51.5364275,-0.0124441
2026-06-01T10:55:47.166346,0.15,0.26,-1.14,51.5364275,-0.0124441
2026-06-01T10:55:47.228921,0.08,0.26,-0.97,51.5364275,-0.0124441
2026-06-01T10:55:47.290272,0.07,0.17,-1.18,51.5364275,-0.0124441
2026-06-01T10:55:47.347994,0.06,0.15,-0.95,51.5364498,-0.0124748
2026-06-01T10:55:47.408160,-0.06,0.34,-0.66,51.5364498,-0.0124748
2026-06-01T10:55:47.468022,0.17,0.26,-1.08,51.5364498,-0.0124748
2026-06-01T10:55:47.557388,0.05,0.1,-0.74,51.5364498,-0.0124748
2026-06-01T10:55:47.617422,-0.01,0.31,-0.96,51.5364498,-0.0124748
2026-06-01T10:55:47.678805,0.18,0.08,-1,51.5364498,-0.0124748
2026-06-01T10:55:47.737970,0.14,0.11,-0.95,51.5364498,-0.0124748
2026-06-01T10:55:47.798792,-0.07,0.29,-0.79,51.5364498,-0.0124748
2026-06-01T10:55:47.890363,-0.02,0.35,-0.77,51.5364498,-0.0124748
2026-06-01T10:55:47.947405,-0.06,0.14,-1.08,51.5364498,-0.0124748
2026-06-01T10:55:48.007785,-0.15,0.44,-1.48,51.5364498,-0.0124748
2026-06-01T10:55:48.067801,-0.04,0.56,-1.11,51.5364498,-0.0124748
2026-06-01T10:55:48.127462,-0.08,0.37,-0.86,51.5364498,-0.0124748
2026-06-01T10:55:48.217712,0.03,0.23,-1,51.5364498,-0.0124748
2026-06-01T10:55:48.342531,0.18,0.23,-0.85,51.536474,-0.0125035
2026-06-01T10:55:48.346227,0.01,0.53,-0.87,51.536474,-0.0125035
2026-06-01T10:55:48.458689,0.11,0.17,-1.16,51.536474,-0.0125035
2026-06-01T10:55:48.459322,-0.09,0.2,-1.01,51.536474,-0.0125035
2026-06-01T10:55:48.579237,0.15,0.12,-0.79,51.536474,-0.0125035
2026-06-01T10:55:48.607965,0.11,0.2,-0.95,51.536474,-0.0125035
2026-06-01T10:55:48.668029,-0.08,0.42,-1,51.536474,-0.0125035
2026-06-01T10:55:48.758846,0.09,0.32,-0.95,51.536474,-0.0125035
2026-06-01T10:55:48.821935,-0.04,0.36,-1.07,51.536474,-0.0125035
2026-06-01T10:55:48.877671,0.03,0.25,-0.93,51.536474,-0.0125035
2026-06-01T10:55:48.937517,-0.06,0.33,-0.9,51.536474,-0.0125035
2026-06-01T10:55:48.997833,0.1,0.28,-1.16,51.536474,-0.0125035
2026-06-01T10:55:49.057953,0.04,0.28,-1.13,51.536474,-0.0125035
2026-06-01T10:55:49.150242,-0.01,0.25,-0.88,51.536474,-0.0125035
2026-06-01T10:55:49.208719,-0.08,0.36,-0.93,51.536474,-0.0125035
2026-06-01T10:55:49.268194,-0.05,0.23,-0.89,51.536474,-0.0125035
2026-06-01T10:55:49.327809,-0.04,0.26,-1.13,51.536474,-0.0125035
2026-06-01T10:55:49.418489,0.02,0.37,-1.09,51.5364988,-0.0125316
2026-06-01T10:55:49.479608,0.05,0.31,-0.9,51.5364988,-0.0125316
2026-06-01T10:55:49.539459,-0.04,0.32,-0.95,51.5364988,-0.0125316
2026-06-01T10:55:49.598430,-0.06,0.31,-0.84,51.5364988,-0.0125316
2026-06-01T10:55:49.658275,0.11,0.17,-1.03,51.5364988,-0.0125316
2026-06-01T10:55:49.720937,0.03,0.39,-1.29,51.5364988,-0.0125316
2026-06-01T10:55:49.839603,-0.14,0.43,-0.81,51.5364988,-0.0125316
2026-06-01T10:55:49.869167,0.15,0.22,-1.06,51.5364988,-0.0125316
2026-06-01T10:55:49.927948,0.03,0.39,-1.01,51.5364988,-0.0125316
2026-06-01T10:55:49.987517,0.04,0.35,-1.26,51.5364988,-0.0125316
2026-06-01T10:55:50.047673,-0.03,0.2,-1.15,51.5364988,-0.0125316
2026-06-01T10:55:50.137844,-0.04,0.32,-0.93,51.5364988,-0.0125316
2026-06-01T10:55:50.197265,-0.13,0.31,-0.93,51.5364988,-0.0125316
2026-06-01T10:55:50.258660,0.14,-0.08,-0.98,51.5364988,-0.0125316
2026-06-01T10:55:50.319975,-0.04,0.41,-1.07,51.5364988,-0.0125316
2026-06-01T10:55:50.379682,0.03,0.24,-1.05,51.5365288,-0.0125583
2026-06-01T10:55:50.496524,0.1,0.42,-0.94,51.5365288,-0.0125583
2026-06-01T10:55:50.525691,0,0.25,-0.8,51.5365288,-0.0125583
2026-06-01T10:55:50.586221,0.08,0.27,-0.97,51.5365288,-0.0125583
2026-06-01T10:55:50.647563,-0.06,0.26,-1.03,51.5365288,-0.0125583
2026-06-01T10:55:50.737569,-0.03,0.3,-1.04,51.5365288,-0.0125583
2026-06-01T10:55:50.798179,0.02,0.26,-1.14,51.5365288,-0.0125583
2026-06-01T10:55:50.857232,0.01,0.38,-0.91,51.5365288,-0.0125583
2026-06-01T10:55:50.919592,0.05,0.31,-0.83,51.5365288,-0.0125583
2026-06-01T10:55:50.975881,0.08,0.31,-1.19,51.5365288,-0.0125583
2026-06-01T10:55:51.067223,-0.18,0.38,-0.94,51.5365288,-0.0125583
2026-06-01T10:55:51.126398,0.03,0.31,-0.89,51.5365288,-0.0125583
2026-06-01T10:55:51.189052,-0.09,0.27,-1.01,51.5365288,-0.0125583
2026-06-01T10:55:51.247234,-0.02,0.13,-0.93,51.5365288,-0.0125583
2026-06-01T10:55:51.336922,0.08,0.23,-1.07,51.5365572,-0.0125801
2026-06-01T10:55:51.396390,0.02,0.29,-0.95,51.5365572,-0.0125801
2026-06-01T10:55:51.455954,-0.01,0.31,-0.98,51.5365572,-0.0125801
2026-06-01T10:55:51.517614,-0.01,0.36,-0.88,51.5365572,-0.0125801
2026-06-01T10:55:51.576878,0.06,0.26,-1,51.5365572,-0.0125801
2026-06-01T10:55:51.668570,-0.04,0.44,-0.95,51.5365572,-0.0125801
2026-06-01T10:55:51.726837,-0.05,0.31,-1,51.5365572,-0.0125801
2026-06-01T10:55:51.789151,-0.04,0.44,-0.79,51.5365572,-0.0125801
2026-06-01T10:55:51.849142,0.13,-0.05,-1.18,51.5365572,-0.0125801
2026-06-01T10:55:51.912744,0.02,0.44,-0.97,51.5365572,-0.0125801
2026-06-01T10:55:51.997399,0.02,0.25,-1.23,51.5365572,-0.0125801
2026-06-01T10:55:52.057240,-0.07,0.39,-0.66,51.5365572,-0.0125801
2026-06-01T10:55:52.116853,-0.11,0.46,-0.91,51.5365572,-0.0125801
2026-06-01T10:55:52.177475,0.15,-0.01,-0.85,51.5365572,-0.0125801
2026-06-01T10:55:52.238910,-0.08,0.6,-1.05,51.5365572,-0.0125801
2026-06-01T10:55:52.332040,-0.06,0.29,-1.34,51.5365839,-0.0126082
2026-06-01T10:55:52.387330,-0.05,0.32,-0.76,51.5365839,-0.0126082
2026-06-01T10:55:52.448453,-0.19,0.39,-0.81,51.5365839,-0.0126082
2026-06-01T10:55:52.509731,0.16,0.09,-0.81,51.5365839,-0.0126082
2026-06-01T10:55:52.568488,0.08,0.37,-1.03,51.5365839,-0.0126082
2026-06-01T10:55:52.688521,-0.04,0.36,-1.17,51.5365839,-0.0126082
2026-06-01T10:55:52.717593,0.01,0.24,-1.15,51.5365839,-0.0126082
2026-06-01T10:55:52.778690,-0.14,0.28,-0.77,51.5365839,-0.0126082
2026-06-01T10:55:52.838315,0.01,0.28,-0.86,51.5365839,-0.0126082
2026-06-01T10:55:52.898790,0.09,0.27,-1,51.5365839,-0.0126082
2026-06-01T10:55:52.989579,0,0.22,-0.96,51.5365839,-0.0126082
2026-06-01T10:55:53.048536,0.06,0.29,-1.13,51.5365839,-0.0126082
2026-06-01T10:55:53.108045,-0.08,0.34,-0.84,51.5365839,-0.0126082
2026-06-01T10:55:53.168024,-0.03,0.32,-0.9,51.5365839,-0.0126082
2026-06-01T10:55:53.260538,-0.01,0.25,-1.03,51.5365839,-0.0126082
2026-06-01T10:55:53.316965,0.08,0.19,-1.15,51.5365839,-0.0126082
2026-06-01T10:55:53.408901,0.07,0.32,-1.14,51.5366111,-0.0126392
2026-06-01T10:55:53.438682,-0.07,0.22,-0.92,51.5366111,-0.0126392
2026-06-01T10:55:53.496512,0.04,0.35,-0.81,51.5366111,-0.0126392
2026-06-01T10:55:53.588430,0.21,0.38,-0.94,51.5366111,-0.0126392
2026-06-01T10:55:53.649426,0.16,0.25,-1.03,51.5366111,-0.0126392
2026-06-01T10:55:53.708942,0.13,0.32,-0.98,51.5366111,-0.0126392
2026-06-01T10:55:53.767281,-0.21,0.29,-0.91,51.5366111,-0.0126392
2026-06-01T10:55:53.828063,0,0.2,-0.86,51.5366111,-0.0126392
2026-06-01T10:55:53.917803,0.03,-0.03,-1.42,51.5366111,-0.0126392
2026-06-01T10:55:53.978568,-0.08,0.48,-0.75,51.5366111,-0.0126392
2026-06-01T10:55:54.042860,-0.16,0.1,-0.53,51.5366111,-0.0126392
2026-06-01T10:55:54.096891,-0.05,0.16,-1.11,51.5366111,-0.0126392
2026-06-01T10:55:54.159872,0.04,0.57,-1.07,51.5366111,-0.0126392
2026-06-01T10:55:54.249496,0.41,-0.16,-0.94,51.5366111,-0.0126392
2026-06-01T10:55:54.308342,-0.24,0.24,-0.57,51.5366111,-0.0126392
2026-06-01T10:55:54.368514,-0.08,0.38,-0.76,51.5366371,-0.0126712
2026-06-01T10:55:54.427494,0.1,0.17,-0.96,51.5366371,-0.0126712
2026-06-01T10:55:54.487816,0.43,0.08,-0.96,51.5366371,-0.0126712
2026-06-01T10:55:54.580216,-0.09,0.35,-0.94,51.5366371,-0.0126712
2026-06-01T10:55:54.641505,-0.07,0.27,-0.62,51.5366371,-0.0126712
2026-06-01T10:55:54.697530,0.05,0.31,-0.81,51.5366371,-0.0126712
2026-06-01T10:55:54.757469,0.13,0.22,-0.99,51.5366371,-0.0126712
2026-06-01T10:55:54.817600,-0.04,0.31,-1.34,51.5366371,-0.0126712
2026-06-01T10:55:54.908029,0.04,0.45,-1.3,51.5366371,-0.0126712
2026-06-01T10:55:54.967835,-0.19,0.49,-0.8,51.5366371,-0.0126712
2026-06-01T10:55:55.028055,0.1,0.16,-0.98,51.5366371,-0.0126712
2026-06-01T10:55:55.088239,-0.03,0.29,-0.73,51.5366371,-0.0126712
2026-06-01T10:55:55.179251,0.13,0.32,-1.31,51.5366371,-0.0126712
2026-06-01T10:55:55.242804,-0.04,0.19,-1.18,51.5366371,-0.0126712
2026-06-01T10:55:55.298588,-0.02,0.32,-0.8,51.5366371,-0.0126712
2026-06-01T10:55:55.358701,-0.01,0.22,-0.83,51.5366624,-0.0127038
2026-06-01T10:55:55.419457,-0.06,0.35,-0.97,51.5366624,-0.0127038
2026-06-01T10:55:55.507815,0,0.25,-1.14,51.5366624,-0.0127038
2026-06-01T10:55:55.570516,-0.04,0.3,-1,51.5366624,-0.0127038
2026-06-01T10:55:55.659456,-0.08,0.18,-0.89,51.5366624,-0.0127038
2026-06-01T10:55:55.687860,-0.02,0.38,-1,51.5366624,-0.0127038
2026-06-01T10:55:55.749657,0.03,0.3,-0.66,51.5366624,-0.0127038
2026-06-01T10:55:55.840375,-0.06,0.22,-1.03,51.5366624,-0.0127038
2026-06-01T10:55:55.901447,0.06,0.21,-1.11,51.5366624,-0.0127038
2026-06-01T10:55:55.960243,-0.05,0.44,-1.05,51.5366624,-0.0127038
2026-06-01T10:55:56.023330,-0.1,0.33,-0.77,51.5366624,-0.0127038
2026-06-01T10:55:56.108105,0.01,0.24,-0.96,51.5366624,-0.0127038
2026-06-01T10:55:56.168551,-0.03,0.21,-1.07,51.5366624,-0.0127038
2026-06-01T10:55:56.230565,-0.08,0.37,-1.03,51.5366624,-0.0127038
2026-06-01T10:55:56.289007,-0.13,0.36,-0.81,51.5366624,-0.0127038
2026-06-01T10:55:56.348247,0.15,0.3,-1.18,51.536686,-0.0127363
2026-06-01T10:55:56.440656,0.05,0.36,-0.87,51.536686,-0.0127363
2026-06-01T10:55:56.503015,0.12,0.23,-1.15,51.536686,-0.0127363
2026-06-01T10:55:56.559076,0.06,0.36,-0.99,51.536686,-0.0127363
2026-06-01T10:55:56.618455,0,0.31,-0.94,51.536686,-0.0127363
2026-06-01T10:55:56.679084,-0.03,0.4,-1.03,51.536686,-0.0127363
2026-06-01T10:55:56.770351,0,0.31,-1.1,51.536686,-0.0127363
2026-06-01T10:55:56.831357,-0.11,0.32,-0.95,51.536686,-0.0127363
2026-06-01T10:55:56.888617,0,0.31,-0.96,51.536686,-0.0127363
2026-06-01T10:55:56.948714,-0.14,0.32,-0.99,51.536686,-0.0127363
2026-06-01T10:55:57.007128,0.08,0.26,-0.89,51.536686,-0.0127363
2026-06-01T10:55:57.098847,0,0.32,-1.05,51.536686,-0.0127363
2026-06-01T10:55:57.158896,-0.13,0.28,-1,51.536686,-0.0127363
2026-06-01T10:55:57.217772,-0.07,0.32,-0.95,51.536686,-0.0127363
2026-06-01T10:55:57.285190,0.01,0.2,-0.97,51.536686,-0.0127363
2026-06-01T10:55:57.399025,-0.05,0.27,-0.94,51.5367088,-0.0127693
2026-06-01T10:55:57.433649,0.13,0.49,-0.92,51.5367088,-0.0127693
2026-06-01T10:55:57.487951,-0.02,0.27,-1.05,51.5367088,-0.0127693
2026-06-01T10:55:57.550271,-0.07,0.27,-0.86,51.5367088,-0.0127693
2026-06-01T10:55:57.608997,0.08,0.21,-0.94,51.5367088,-0.0127693
2026-06-01T10:55:57.699513,-0.02,0.43,-0.95,51.5367088,-0.0127693
2026-06-01T10:55:57.759245,0.02,0.28,-0.96,51.5367088,-0.0127693
2026-06-01T10:55:57.820127,0,0.37,-1.09,51.5367088,-0.0127693
2026-06-01T10:55:57.880969,0.05,0.35,-1.03,51.5367088,-0.0127693
2026-06-01T10:55:57.939489,0.02,0.27,-0.94,51.5367088,-0.0127693
2026-06-01T10:55:58.029489,-0.13,0.33,-0.96,51.5367088,-0.0127693
2026-06-01T10:55:58.089860,0.11,0.19,-1.02,51.5367088,-0.0127693
2026-06-01T10:55:58.150715,0.02,0.25,-1.03,51.5367088,-0.0127693
2026-06-01T10:55:58.209618,0.07,0.27,-1.03,51.5367088,-0.0127693
2026-06-01T10:55:58.270406,0.08,0.28,-0.97,51.5367088,-0.0127693
2026-06-01T10:55:58.359794,-0.1,0.22,-0.96,51.5367312,-0.012801
2026-06-01T10:55:58.418324,-0.13,0.38,-0.95,51.5367312,-0.012801
2026-06-01T10:55:58.480473,-0.03,0.27,-0.89,51.5367312,-0.012801
2026-06-01T10:55:58.538336,0.04,0.32,-1.07,51.5367312,-0.012801
2026-06-01T10:55:58.630855,0.01,0.25,-0.92,51.5367312,-0.012801
2026-06-01T10:55:58.688384,0.05,0.31,-1.04,51.5367312,-0.012801
2026-06-01T10:55:58.750059,-0.08,0.25,-0.97,51.5367312,-0.012801
2026-06-01T10:55:58.808734,-0.04,0.26,-1.05,51.5367312,-0.012801
2026-06-01T10:55:58.868959,0.08,0.37,-1.06,51.5367312,-0.012801
2026-06-01T10:55:58.931131,-0.07,0.33,-0.87,51.5367312,-0.012801
2026-06-01T10:55:59.017917,-0.01,0.35,-0.99,51.5367312,-0.012801
2026-06-01T10:55:59.078886,0,0.32,-0.88,51.5367312,-0.012801
2026-06-01T10:55:59.138773,0.07,0.32,-1.02,51.5367312,-0.012801
2026-06-01T10:55:59.198124,-0.06,0.21,-1.01,51.5367312,-0.012801
2026-06-01T10:55:59.288127,0.05,0.23,-0.88,51.5367312,-0.012801
2026-06-01T10:55:59.349636,-0.02,0.32,-0.92,51.5367527,-0.0128272
2026-06-01T10:55:59.408534,-0.05,0.33,-0.97,51.5367527,-0.0128272
2026-06-01T10:55:59.467617,-0.06,0.31,-0.95,51.5367527,-0.0128272
2026-06-01T10:55:59.559586,-0.03,0.22,-1.06,51.5367527,-0.0128272
2026-06-01T10:55:59.620776,-0.06,0.24,-0.93,51.5367527,-0.0128272
2026-06-01T10:55:59.681663,0.02,0.4,-0.9,51.5367527,-0.0128272
2026-06-01T10:55:59.740623,0.06,0.26,-0.94,51.5367527,-0.0128272
2026-06-01T10:55:59.801635,-0.01,0.32,-1.08,51.5367527,-0.0128272
2026-06-01T10:55:59.889285,-0.01,0.3,-1.01,51.5367527,-0.0128272
2026-06-01T10:55:59.948270,-0.03,0.33,-0.94,51.5367527,-0.0128272
2026-06-01T10:56:00.007922,0.09,0.33,-1.04,51.5367527,-0.0128272
2026-06-01T10:56:00.067756,0.01,0.35,-1.01,51.5367527,-0.0128272
2026-06-01T10:56:00.129342,-0.05,0.36,-0.98,51.5367527,-0.0128272
2026-06-01T10:56:00.219171,0.09,0.31,-0.97,51.5367527,-0.0128272
2026-06-01T10:56:00.279315,0,0.28,-1.03,51.5367527,-0.0128272
2026-06-01T10:56:00.367279,-0.08,0.31,-0.93,51.5367778,-0.0128456
2026-06-01T10:56:00.397008,-0.04,0.28,-0.88,51.5367778,-0.0128456
2026-06-01T10:56:00.457304,0.02,0.25,-0.99,51.5367778,-0.0128456
2026-06-01T10:56:00.548693,0.06,0.32,-1.01,51.5367778,-0.0128456
2026-06-01T10:56:00.609517,-0.03,0.45,-0.91,51.5367778,-0.0128456
2026-06-01T10:56:00.668085,-0.03,0.37,-0.87,51.5367778,-0.0128456
2026-06-01T10:56:00.728761,-0.01,0.28,-0.99,51.5367778,-0.0128456
2026-06-01T10:56:00.788436,-0.02,0.25,-1.02,51.5367778,-0.0128456
2026-06-01T10:56:00.879157,-0.02,0.31,-0.99,51.5367778,-0.0128456
2026-06-01T10:56:00.937578,-0.02,0.36,-0.99,51.5367778,-0.0128456
2026-06-01T10:56:00.999620,-0.05,0.32,-0.95,51.5367778,-0.0128456
2026-06-01T10:56:01.059359,0.18,0.16,-1.05,51.5367778,-0.0128456
2026-06-01T10:56:01.120546,0.07,0.36,-0.92,51.5367778,-0.0128456
2026-06-01T10:56:01.208519,-0.09,0.33,-0.96,51.5367778,-0.0128456
2026-06-01T10:56:01.268611,-0.01,0.42,-0.95,51.5367778,-0.0128456
2026-06-01T10:56:01.326885,0.07,0.22,-0.94,51.5368065,-0.012862
2026-06-01T10:56:01.388914,0.04,0.26,-1.17,51.5368065,-0.012862
2026-06-01T10:56:01.478186,0.01,0.39,-0.85,51.5368065,-0.012862
2026-06-01T10:56:01.537890,0.09,0.15,-1.2,51.5368065,-0.012862
2026-06-01T10:56:01.598210,-0.09,0.44,-0.91,51.5368065,-0.012862
2026-06-01T10:56:01.658877,0.27,0.29,-1.16,51.5368065,-0.012862
2026-06-01T10:56:01.719173,0.07,0.07,-0.93,51.5368065,-0.012862
2026-06-01T10:56:01.810857,-0.23,0.56,-0.89,51.5368065,-0.012862
2026-06-01T10:56:01.870064,0.03,0.09,-0.99,51.5368065,-0.012862
2026-06-01T10:56:01.961314,-0.2,0.4,-1.01,51.5368065,-0.012862
2026-06-01T10:56:01.987979,0.03,0.3,-0.94,51.5368065,-0.012862
2026-06-01T10:56:02.047627,-0.13,0.42,-0.88,51.5368065,-0.012862
2026-06-01T10:56:02.138249,0.04,0.31,-0.93,51.5368065,-0.012862
2026-06-01T10:56:02.197823,-0.02,0.17,-0.97,51.5368065,-0.012862
2026-06-01T10:56:02.257122,-0.03,0.21,-1.06,51.5368065,-0.012862
2026-06-01T10:56:02.317606,-0.06,0.41,-0.9,51.5368065,-0.012862
2026-06-01T10:56:02.377565,-0.01,0.31,-0.98,51.5368323,-0.012886
2026-06-01T10:56:02.469212,-0.01,0.31,-0.95,51.5368323,-0.012886
2026-06-01T10:56:02.529323,0.02,0.38,-1,51.5368323,-0.012886
2026-06-01T10:56:02.588969,-0.06,0.25,-0.93,51.5368323,-0.012886
2026-06-01T10:56:02.651288,0.03,0.3,-1,51.5368323,-0.012886
2026-06-01T10:56:02.711060,-0.1,0.31,-1.02,51.5368323,-0.012886
2026-06-01T10:56:02.798881,0.02,0.28,-1,51.5368323,-0.012886
2026-06-01T10:56:02.857507,0,0.3,-1.05,51.5368323,-0.012886
2026-06-01T10:56:02.918911,-0.09,0.24,-0.97,51.5368323,-0.012886
2026-06-01T10:56:02.981127,-0.15,0.35,-0.99,51.5368323,-0.012886
2026-06-01T10:56:03.038909,0.02,0.29,-0.97,51.5368323,-0.012886
2026-06-01T10:56:03.132351,0,0.32,-1.01,51.5368323,-0.012886
2026-06-01T10:56:03.188745,-0.04,0.29,-1.01,51.5368323,-0.012886
2026-06-01T10:56:03.280401,-0.08,0.33,-0.89,51.5368323,-0.012886
2026-06-01T10:56:03.311447,0.01,0.26,-0.97,51.5368323,-0.012886
2026-06-01T10:56:03.396963,0.05,0.21,-0.98,51.5368546,-0.0129155
2026-06-01T10:56:03.460425,0.03,0.31,-0.96,51.5368546,-0.0129155
2026-06-01T10:56:03.518495,-0.06,0.4,-1.06,51.5368546,-0.0129155
2026-06-01T10:56:03.580507,-0.08,0.4,-0.87,51.5368546,-0.0129155
2026-06-01T10:56:03.639444,0.1,0.29,-0.99,51.5368546,-0.0129155
2026-06-01T10:56:03.728369,0.1,0.23,-0.97,51.5368546,-0.0129155
2026-06-01T10:56:03.789126,-0.04,0.41,-1.06,51.5368546,-0.0129155
2026-06-01T10:56:03.853812,-0.02,0.21,-0.97,51.5368546,-0.0129155
2026-06-01T10:56:03.909789,0.07,0.22,-0.98,51.5368546,-0.0129155
2026-06-01T10:56:03.971404,0.01,0.32,-0.89,51.5368546,-0.0129155
2026-06-01T10:56:04.057899,0.01,0.25,-1,51.5368546,-0.0129155
2026-06-01T10:56:04.121827,-0.02,0.31,-1.04,51.5368546,-0.0129155
2026-06-01T10:56:04.179732,-0.04,0.35,-0.97,51.5368546,-0.0129155
2026-06-01T10:56:04.241085,-0.06,0.22,-0.95,51.5368546,-0.0129155
2026-06-01T10:56:04.302070,-0.01,0.32,-1.04,51.5368546,-0.0129155
2026-06-01T10:56:04.391469,-0.09,0.24,-1.01,51.5368785,-0.0129422
2026-06-01T10:56:04.449122,-0.03,0.33,-1.06,51.5368785,-0.0129422
2026-06-01T10:56:04.512863,-0.08,0.27,-0.97,51.5368785,-0.0129422
2026-06-01T10:56:04.570311,0.02,0.31,-0.9,51.5368785,-0.0129422
2026-06-01T10:56:04.630307,0.06,0.32,-0.87,51.5368785,-0.0129422
2026-06-01T10:56:04.719831,-0.01,0.42,-0.94,51.5368785,-0.0129422
2026-06-01T10:56:04.780501,-0.03,0.36,-1.02,51.5368785,-0.0129422
2026-06-01T10:56:04.840606,0.04,0.4,-0.87,51.5368785,-0.0129422
2026-06-01T10:56:04.900125,0.11,0.4,-0.99,51.5368785,-0.0129422
2026-06-01T10:56:04.992088,-0.17,0.19,-1,51.5368785,-0.0129422
2026-06-01T10:56:05.054435,0,0.24,-0.89,51.5368785,-0.0129422
2026-06-01T10:56:05.109562,0.07,0.33,-1.03,51.5368785,-0.0129422
2026-06-01T10:56:05.170828,0.05,0.31,-1,51.5368785,-0.0129422
2026-06-01T10:56:05.230328,0.01,0.3,-0.89,51.5368785,-0.0129422
2026-06-01T10:56:05.317955,-0.08,0.33,-1.02,51.5368785,-0.0129422
2026-06-01T10:56:05.379761,-0.06,0.34,-0.97,51.5369057,-0.0129622
2026-06-01T10:56:05.440384,-0.1,0.2,-0.94,51.5369057,-0.0129622
2026-06-01T10:56:05.499039,-0.08,0.32,-0.93,51.5369057,-0.0129622
2026-06-01T10:56:05.591462,0.04,0.34,-0.96,51.5369057,-0.0129622
2026-06-01T10:56:05.647603,-0.04,0.18,-0.89,51.5369057,-0.0129622
2026-06-01T10:56:05.713077,-0.02,0.39,-0.94,51.5369057,-0.0129622
2026-06-01T10:56:05.768031,0,0.27,-1.09,51.5369057,-0.0129622
2026-06-01T10:56:05.828037,0.04,0.32,-1.06,51.5369057,-0.0129622
2026-06-01T10:56:05.922853,-0.09,0.44,-0.81,51.5369057,-0.0129622
2026-06-01T10:56:05.982632,0.08,0.17,-0.97,51.5369057,-0.0129622
2026-06-01T10:56:06.037213,-0.03,0.39,-1.02,51.5369057,-0.0129622
2026-06-01T10:56:06.101748,-0.01,0.24,-1,51.5369057,-0.0129622
2026-06-01T10:56:06.159929,0.01,0.26,-1.01,51.5369057,-0.0129622
2026-06-01T10:56:06.250880,-0.02,0.27,-0.92,51.5369057,-0.0129622
2026-06-01T10:56:06.308400,-0.03,0.33,-0.92,51.5369057,-0.0129622
2026-06-01T10:56:06.369201,0.07,0.25,-1.16,51.5369323,-0.0129837
2026-06-01T10:56:06.431274,-0.22,0.39,-0.82,51.5369323,-0.0129837
2026-06-01T10:56:06.489043,0.01,0.31,-1.03,51.5369323,-0.0129837
2026-06-01T10:56:06.578790,0.19,0.23,-0.91,51.5369323,-0.0129837
2026-06-01T10:56:06.638580,-0.02,0.4,-0.98,51.5369323,-0.0129837
2026-06-01T10:56:06.701277,0.1,0.13,-0.91,51.5369323,-0.0129837
2026-06-01T10:56:06.761985,-0.11,0.34,-0.89,51.5369323,-0.0129837
2026-06-01T10:56:06.820241,-0.11,0.3,-0.98,51.5369323,-0.0129837
2026-06-01T10:56:06.914657,-0.01,0.23,-0.91,51.5369323,-0.0129837
2026-06-01T10:56:06.968061,-0.02,0.36,-1.01,51.5369323,-0.0129837
2026-06-01T10:56:07.032049,-0.02,0.44,-1.02,51.5369323,-0.0129837
2026-06-01T10:56:07.089378,-0.05,0.34,-0.92,51.5369323,-0.0129837
2026-06-01T10:56:07.150060,0.07,0.28,-1,51.5369323,-0.0129837
2026-06-01T10:56:07.240527,0.09,0.16,-1.04,51.5369323,-0.0129837
2026-06-01T10:56:07.306184,0.04,0.36,-0.92,51.5369323,-0.0129837
2026-06-01T10:56:07.357985,-0.12,0.35,-1,51.5369587,-0.0130096
2026-06-01T10:56:07.422997,-0.03,0.25,-0.99,51.5369587,-0.0130096
2026-06-01T10:56:07.514029,0.1,0.22,-0.96,51.5369587,-0.0130096
2026-06-01T10:56:07.571544,-0.02,0.22,-0.98,51.5369587,-0.0130096
2026-06-01T10:56:07.629644,-0.02,0.38,-0.93,51.5369587,-0.0130096
2026-06-01T10:56:07.687521,-0.07,0.37,-1.03,51.5369587,-0.0130096
2026-06-01T10:56:07.784532,0.05,0.28,-0.96,51.5369587,-0.0130096
2026-06-01T10:56:07.839048,-0.05,0.32,-1.04,51.5369587,-0.0130096
2026-06-01T10:56:07.904063,-0.13,0.26,-0.9,51.5369587,-0.0130096
2026-06-01T10:56:07.960949,0.01,0.19,-1.03,51.5369587,-0.0130096
2026-06-01T10:56:08.048827,-0.11,0.24,-0.98,51.5369587,-0.0130096
2026-06-01T10:56:08.107408,0,0.29,-0.96,51.5369587,-0.0130096
2026-06-01T10:56:08.169202,-0.12,0.34,-0.96,51.5369587,-0.0130096
2026-06-01T10:56:08.263926,0.01,0.35,-1.01,51.5369587,-0.0130096
2026-06-01T10:56:08.290958,0,0.33,-0.98,51.5369587,-0.0130096
2026-06-01T10:56:08.346884,-0.05,0.21,-0.98,51.5369837,-0.01304
2026-06-01T10:56:08.444043,-0.04,0.34,-0.91,51.5369837,-0.01304
2026-06-01T10:56:08.501997,0.09,0.41,-1.15,51.5369837,-0.01304
2026-06-01T10:56:08.561113,0.1,0.26,-0.94,51.5369837,-0.01304
2026-06-01T10:56:08.619531,0.04,0.56,-1.08,51.5369837,-0.01304
2026-06-01T10:56:08.679269,0.16,0.24,-1.06,51.5369837,-0.01304
2026-06-01T10:56:08.772018,0,0.3,-0.87,51.5369837,-0.01304
2026-06-01T10:56:08.829143,-0.07,0.33,-0.9,51.5369837,-0.01304
2026-06-01T10:56:08.892296,0.11,0.18,-1.1,51.5369837,-0.01304
2026-06-01T10:56:08.952339,-0.21,0.88,-0.97,51.5369837,-0.01304
2026-06-01T10:56:09.009029,-0.21,0.38,-0.72,51.5369837,-0.01304
2026-06-01T10:56:09.098634,-0.18,0.2,-0.9,51.5369837,-0.01304
2026-06-01T10:56:09.157899,0.07,0.23,-1.07,51.5369837,-0.01304
2026-06-01T10:56:09.220557,0.1,0.17,-1.16,51.5369837,-0.01304
2026-06-01T10:56:09.281104,0.03,0.28,-1.07,51.5369837,-0.01304
2026-06-01T10:56:09.338328,-0.18,0.41,-0.82,51.5370084,-0.0130672
2026-06-01T10:56:09.428946,0.12,0.13,-0.96,51.5370084,-0.0130672
2026-06-01T10:56:09.488003,0.01,0.27,-0.94,51.5370084,-0.0130672
2026-06-01T10:56:09.547817,-0.11,0.3,-1.18,51.5370084,-0.0130672
2026-06-01T10:56:09.611460,0.13,0.29,-1.1,51.5370084,-0.0130672
2026-06-01T10:56:09.703746,0.01,0.25,-0.91,51.5370084,-0.0130672
2026-06-01T10:56:09.790814,0.17,0.49,-0.93,51.5370084,-0.0130672
2026-06-01T10:56:09.820929,0.2,0.17,-1.04,51.5370084,-0.0130672
2026-06-01T10:56:09.880388,-0.22,0.26,-1.18,51.5370084,-0.0130672
2026-06-01T10:56:09.939629,0.01,0.37,-0.86,51.5370084,-0.0130672
2026-06-01T10:56:10.028756,-0.12,0.35,-0.84,51.5370084,-0.0130672
2026-06-01T10:56:10.093037,-0.08,0.25,-0.91,51.5370084,-0.0130672
2026-06-01T10:56:10.147875,0.11,0.28,-1.19,51.5370084,-0.0130672
2026-06-01T10:56:10.207610,-0.12,0.42,-1,51.5370084,-0.0130672
2026-06-01T10:56:10.269525,0.02,0.33,-0.98,51.5370084,-0.0130672
2026-06-01T10:56:10.360444,0.1,0.38,-0.96,51.5370351,-0.0130859
2026-06-01T10:56:10.418815,-0.08,0.33,-0.66,51.5370351,-0.0130859
2026-06-01T10:56:10.481536,0.07,0.28,-1.37,51.5370351,-0.0130859
2026-06-01T10:56:10.538511,0.02,0.38,-0.95,51.5370351,-0.0130859
2026-06-01T10:56:10.598461,-0.05,0.38,-1.03,51.5370351,-0.0130859
2026-06-01T10:56:10.718939,-0.03,0.42,-1.02,51.5370351,-0.0130859
2026-06-01T10:56:10.751442,-0.18,0.26,-0.64,51.5370351,-0.0130859
2026-06-01T10:56:10.842637,0.03,0.13,-1.11,51.5370351,-0.0130859
2026-06-01T10:56:10.869708,0.35,-0.21,-0.95,51.5370351,-0.0130859
2026-06-01T10:56:10.930189,-0.06,0.41,-1.06,51.5370351,-0.0130859
2026-06-01T10:56:11.021706,0.09,0.15,-1.01,51.5370351,-0.0130859
2026-06-01T10:56:11.080992,-0.07,0.32,-0.93,51.5370351,-0.0130859
2026-06-01T10:56:11.141489,-0.01,0.41,-0.83,51.5370351,-0.0130859
2026-06-01T10:56:11.200412,0.03,0.27,-0.96,51.5370351,-0.0130859
2026-06-01T10:56:11.266810,-0.08,0.27,-1.13,51.5370351,-0.0130859
2026-06-01T10:56:11.350106,-0.08,0.43,-0.96,51.5370636,-0.0130964
2026-06-01T10:56:11.408290,-0.05,0.18,-0.91,51.5370636,-0.0130964
2026-06-01T10:56:11.469987,-0.01,0.24,-0.96,51.5370636,-0.0130964
2026-06-01T10:56:11.532295,0.02,0.45,-0.91,51.5370636,-0.0130964
2026-06-01T10:56:11.619060,0.22,0.36,-1.07,51.5370636,-0.0130964
2026-06-01T10:56:11.681038,-0.07,0.35,-0.98,51.5370636,-0.0130964
2026-06-01T10:56:11.738534,0.05,0.18,-0.77,51.5370636,-0.0130964
2026-06-01T10:56:11.799726,0.04,0.33,-0.96,51.5370636,-0.0130964
2026-06-01T10:56:11.890618,0.09,0.19,-1.02,51.5370636,-0.0130964
2026-06-01T10:56:11.950128,-0.12,0.39,-0.9,51.5370636,-0.0130964
2026-06-01T10:56:12.040633,0.07,0.17,-0.95,51.5370636,-0.0130964
2026-06-01T10:56:12.069458,0.04,0.39,-1.07,51.5370636,-0.0130964
2026-06-01T10:56:12.128735,-0.04,0.35,-0.96,51.5370636,-0.0130964
2026-06-01T10:56:12.218497,-0.02,0.2,-1.08,51.5370636,-0.0130964
2026-06-01T10:56:12.280384,0.04,0.36,-0.93,51.5370636,-0.0130964
2026-06-01T10:56:12.337548,0.04,0.32,-0.92,51.5370925,-0.0131046
2026-06-01T10:56:12.399070,-0.08,0.33,-1.04,51.5370925,-0.0131046
2026-06-01T10:56:12.461797,0.03,0.35,-0.92,51.5370925,-0.0131046
2026-06-01T10:56:12.551252,0,0.3,-0.95,51.5370925,-0.0131046
2026-06-01T10:56:12.610236,0.05,0.26,-1.01,51.5370925,-0.0131046
2026-06-01T10:56:12.668795,-0.04,0.37,-1.03,51.5370925,-0.0131046
2026-06-01T10:56:12.730335,-0.19,0.27,-0.77,51.5370925,-0.0131046
2026-06-01T10:56:12.789300,-0.02,0.28,-0.99,51.5370925,-0.0131046
2026-06-01T10:56:12.882758,0.01,0.45,-1.04,51.5370925,-0.0131046
2026-06-01T10:56:12.941128,0.01,0.25,-0.99,51.5370925,-0.0131046
2026-06-01T10:56:12.997921,0.01,0.28,-0.96,51.5370925,-0.0131046
2026-06-01T10:56:13.058861,-0.12,0.31,-0.95,51.5370925,-0.0131046
2026-06-01T10:56:13.124844,-0.12,0.32,-0.97,51.5370925,-0.0131046
2026-06-01T10:56:13.208442,0.11,0.2,-1.1,51.5370925,-0.0131046
2026-06-01T10:56:13.268749,0,0.31,-1.11,51.5370925,-0.0131046
2026-06-01T10:56:13.327338,0.02,0.4,-0.71,51.5370925,-0.0131046
2026-06-01T10:56:13.391738,0.03,0.3,-0.91,51.5371212,-0.0131158
2026-06-01T10:56:13.452489,-0.04,0.31,-0.99,51.5371212,-0.0131158
2026-06-01T10:56:13.539464,0.14,0.28,-0.97,51.5371212,-0.0131158
2026-06-01T10:56:13.602736,-0.13,0.23,-1.1,51.5371212,-0.0131158
2026-06-01T10:56:13.660824,-0.04,0.33,-0.83,51.5371212,-0.0131158
2026-06-01T10:56:13.723178,0.13,0.47,-0.91,51.5371212,-0.0131158
2026-06-01T10:56:13.841702,0,0.2,-1.01,51.5371212,-0.0131158
2026-06-01T10:56:13.867628,0.01,0.36,-1.08,51.5371212,-0.0131158
2026-06-01T10:56:13.933332,0.01,0.31,-0.97,51.5371212,-0.0131158
2026-06-01T10:56:13.988783,-0.02,0.15,-0.97,51.5371212,-0.0131158
2026-06-01T10:56:14.049672,0,0.19,-1.01,51.5371212,-0.0131158
2026-06-01T10:56:14.141654,-0.01,0.27,-1,51.5371212,-0.0131158
2026-06-01T10:56:14.198111,-0.04,0.34,-0.98,51.5371212,-0.0131158
2026-06-01T10:56:14.262726,-0.04,0.35,-0.81,51.5371212,-0.0131158
2026-06-01T10:56:14.316486,-0.1,0.31,-1.05,51.5371506,-0.0131343
2026-06-01T10:56:14.381657,-0.04,0.34,-1.02,51.5371506,-0.0131343
2026-06-01T10:56:14.472577,-0.04,0.31,-0.94,51.5371506,-0.0131343
2026-06-01T10:56:14.528725,0.02,0.32,-0.91,51.5371506,-0.0131343
2026-06-01T10:56:14.589560,0,0.34,-1,51.5371506,-0.0131343
2026-06-01T10:56:14.648687,0.05,0.22,-1,51.5371506,-0.0131343
2026-06-01T10:56:14.713447,-0.03,0.32,-1.16,51.5371506,-0.0131343
2026-06-01T10:56:14.801246,-0.02,0.35,-1.02,51.5371506,-0.0131343
2026-06-01T10:56:14.860092,-0.16,0.35,-0.97,51.5371506,-0.0131343
2026-06-01T10:56:14.919268,0,0.4,-0.91,51.5371506,-0.0131343
2026-06-01T10:56:14.979033,0.14,0.21,-1.09,51.5371506,-0.0131343
2026-06-01T10:56:15.037986,0,0.36,-1.02,51.5371506,-0.0131343
2026-06-01T10:56:15.128096,0.05,0.37,-1.05,51.5371506,-0.0131343
2026-06-01T10:56:15.190133,-0.03,0.28,-0.96,51.5371506,-0.0131343
2026-06-01T10:56:15.251293,0.11,0.43,-0.88,51.5371506,-0.0131343
2026-06-01T10:56:15.307730,0.03,0.22,-0.97,51.5371506,-0.0131343
2026-06-01T10:56:15.369749,-0.01,0.28,-1.02,51.5371762,-0.0131575
2026-06-01T10:56:15.459272,0.04,0.21,-1,51.5371762,-0.0131575
2026-06-01T10:56:15.519871,-0.04,0.34,-0.95,51.5371762,-0.0131575
2026-06-01T10:56:15.586512,0.02,0.38,-0.97,51.5371762,-0.0131575
2026-06-01T10:56:15.637214,-0.09,0.34,-0.84,51.5371762,-0.0131575
2026-06-01T10:56:15.729507,0.09,0.36,-1.09,51.5371762,-0.0131575
2026-06-01T10:56:15.790497,-0.03,0.39,-1.09,51.5371762,-0.0131575
2026-06-01T10:56:15.848626,0.01,0.25,-0.94,51.5371762,-0.0131575
2026-06-01T10:56:15.910478,-0.08,0.21,-0.97,51.5371762,-0.0131575
2026-06-01T10:56:15.998971,0.02,0.27,-0.96,51.5371762,-0.0131575
2026-06-01T10:56:16.057919,-0.1,0.37,-0.94,51.5371762,-0.0131575
2026-06-01T10:56:16.120033,0,0.38,-1,51.5371762,-0.0131575
2026-06-01T10:56:16.178099,-0.06,0.32,-1.05,51.5371762,-0.0131575
2026-06-01T10:56:16.244154,-0.07,0.25,-0.91,51.5371762,-0.0131575
2026-06-01T10:56:16.329505,0.13,0.28,-1.08,51.5372023,-0.013182
2026-06-01T10:56:16.387868,-0.17,0.22,-0.82,51.5372023,-0.013182
2026-06-01T10:56:16.449447,0.02,0.36,-0.88,51.5372023,-0.013182
2026-06-01T10:56:16.509042,0.12,0.28,-1.09,51.5372023,-0.013182
2026-06-01T10:56:16.568279,-0.06,0.27,-1,51.5372023,-0.013182
2026-06-01T10:56:16.662045,-0.07,0.35,-0.82,51.5372023,-0.013182
2026-06-01T10:56:16.719855,0.04,0.29,-0.99,51.5372023,-0.013182
2026-06-01T10:56:16.780827,-0.06,0.31,-1.06,51.5372023,-0.013182
2026-06-01T10:56:16.841958,-0.01,0.44,-0.82,51.5372023,-0.013182
2026-06-01T10:56:16.901332,0.04,0.3,-0.95,51.5372023,-0.013182
2026-06-01T10:56:16.988745,-0.09,0.29,-0.97,51.5372023,-0.013182
2026-06-01T10:56:17.053234,0,0.37,-1,51.5372023,-0.013182
2026-06-01T10:56:17.109482,-0.01,0.14,-0.91,51.5372023,-0.013182
2026-06-01T10:56:17.168772,-0.03,0.28,-0.86,51.5372023,-0.013182
2026-06-01T10:56:17.229903,0,0.28,-0.95,51.5372023,-0.013182
2026-06-01T10:56:17.325030,-0.11,0.42,-0.99,51.5372023,-0.013182
2026-06-01T10:56:17.409538,0.03,0.32,-0.94,51.5372289,-0.0132027
2026-06-01T10:56:17.472419,0.01,0.38,-1,51.5372289,-0.0132027
2026-06-01T10:56:17.498216,-0.03,0.29,-1.04,51.5372289,-0.0132027
2026-06-01T10:56:17.561074,-0.05,0.19,-1.08,51.5372289,-0.0132027
2026-06-01T10:56:17.650112,-0.05,0.33,-0.92,51.5372289,-0.0132027
2026-06-01T10:56:17.737567,-0.09,0.4,-0.89,51.5372289,-0.0132027
2026-06-01T10:56:17.768021,0.07,0.32,-0.94,51.5372289,-0.0132027
2026-06-01T10:56:17.828510,-0.04,0.24,-0.97,51.5372289,-0.0132027
2026-06-01T10:56:17.921217,-0.03,0.31,-1.08,51.5372289,-0.0132027
2026-06-01T10:56:17.979038,-0.08,0.41,-0.87,51.5372289,-0.0132027
2026-06-01T10:56:18.038407,0.05,0.29,-0.95,51.5372289,-0.0132027
2026-06-01T10:56:18.098416,-0.04,0.39,-1.03,51.5372289,-0.0132027
2026-06-01T10:56:18.188638,0.01,0.24,-0.98,51.5372289,-0.0132027
2026-06-01T10:56:18.253034,-0.01,0.24,-0.97,51.5372289,-0.0132027
2026-06-01T10:56:18.317799,-0.05,0.33,-0.92,51.5372289,-0.0132027
2026-06-01T10:56:18.369532,0,0.28,-1.04,51.5372569,-0.0132178
2026-06-01T10:56:18.431333,0.01,0.29,-0.89,51.5372569,-0.0132178
2026-06-01T10:56:18.487905,-0.03,0.34,-0.98,51.5372569,-0.0132178
2026-06-01T10:56:18.582775,-0.12,0.27,-0.97,51.5372569,-0.0132178
2026-06-01T10:56:18.639788,0,0.39,-1.06,51.5372569,-0.0132178
2026-06-01T10:56:18.701323,-0.01,0.31,-0.99,51.5372569,-0.0132178
2026-06-01T10:56:18.762011,0.01,0.32,-0.95,51.5372569,-0.0132178
2026-06-01T10:56:18.818729,-0.07,0.32,-1.01,51.5372569,-0.0132178
2026-06-01T10:56:18.938652,0.04,0.22,-1.03,51.5372569,-0.0132178
2026-06-01T10:56:18.970304,0.01,0.29,-0.96,51.5372569,-0.0132178
2026-06-01T10:56:19.031618,-0.03,0.32,-0.94,51.5372569,-0.0132178
2026-06-01T10:56:19.088303,-0.03,0.38,-0.97,51.5372569,-0.0132178
2026-06-01T10:56:19.178827,-0.02,0.41,-0.91,51.5372569,-0.0132178
2026-06-01T10:56:19.238972,0.03,0.24,-0.96,51.5372569,-0.0132178
2026-06-01T10:56:19.300464,0.04,0.19,-1.03,51.5372569,-0.0132178
2026-06-01T10:56:19.360876,-0.05,0.35,-0.94,51.5372861,-0.0132303
2026-06-01T10:56:19.422568,-0.13,0.24,-1.03,51.5372861,-0.0132303
2026-06-01T10:56:19.510880,0.06,0.34,-1.08,51.5372861,-0.0132303
2026-06-01T10:56:19.568219,-0.01,0.26,-1,51.5372861,-0.0132303
2026-06-01T10:56:19.632187,-0.03,0.33,-0.86,51.5372861,-0.0132303
2026-06-01T10:56:19.690160,-0.05,0.34,-0.97,51.5372861,-0.0132303
2026-06-01T10:56:19.748404,-0.06,0.3,-0.99,51.5372861,-0.0132303
2026-06-01T10:56:19.840867,-0.03,0.29,-1,51.5372861,-0.0132303
2026-06-01T10:56:19.899611,-0.13,0.35,-0.95,51.5372861,-0.0132303
2026-06-01T10:56:19.959735,-0.11,0.3,-1.01,51.5372861,-0.0132303
2026-06-01T10:56:20.021737,0.04,0.31,-1,51.5372861,-0.0132303
2026-06-01T10:56:20.114368,0.04,0.2,-1,51.5372861,-0.0132303
2026-06-01T10:56:20.170842,-0.04,0.29,-0.98,51.5372861,-0.0132303
2026-06-01T10:56:20.232799,0.07,0.38,-0.89,51.5372861,-0.0132303
2026-06-01T10:56:20.290097,-0.06,0.32,-0.89,51.5372861,-0.0132303
2026-06-01T10:56:20.347540,-0.02,0.42,-1.05,51.5373137,-0.0132459
2026-06-01T10:56:20.469155,-0.05,0.33,-0.94,51.5373137,-0.0132459
2026-06-01T10:56:20.497266,0.02,0.27,-1.04,51.5373137,-0.0132459
2026-06-01T10:56:20.557549,0.07,0.34,-0.95,51.5373137,-0.0132459
2026-06-01T10:56:20.621454,0,0.29,-0.91,51.5373137,-0.0132459
2026-06-01T10:56:20.680263,-0.08,0.26,-0.98,51.5373137,-0.0132459
2026-06-01T10:56:20.768578,0.02,0.27,-0.94,51.5373137,-0.0132459
2026-06-01T10:56:20.827902,-0.02,0.34,-0.84,51.5373137,-0.0132459
2026-06-01T10:56:20.892156,-0.06,0.37,-0.87,51.5373137,-0.0132459
2026-06-01T10:56:20.947551,0.02,0.31,-0.97,51.5373137,-0.0132459
2026-06-01T10:56:21.012312,0.01,0.34,-0.99,51.5373137,-0.0132459
2026-06-01T10:56:21.097920,-0.01,0.42,-1.02,51.5373137,-0.0132459
2026-06-01T10:56:21.158370,0.01,0.27,-0.98,51.5373137,-0.0132459
2026-06-01T10:56:21.218148,-0.14,0.25,-0.79,51.5373137,-0.0132459
2026-06-01T10:56:21.281226,0.06,0.26,-1.08,51.5373137,-0.0132459
2026-06-01T10:56:21.337327,0.04,0.31,-1.02,51.5373396,-0.0132655
2026-06-01T10:56:21.429198,0.06,0.19,-0.96,51.5373396,-0.0132655
2026-06-01T10:56:21.487874,-0.09,0.25,-0.79,51.5373396,-0.0132655
2026-06-01T10:56:21.548828,0.25,0.01,-1.34,51.5373396,-0.0132655
2026-06-01T10:56:21.610928,-0.16,0.42,-1.11,51.5373396,-0.0132655
2026-06-01T10:56:21.669650,0,0.54,-1.14,51.5373396,-0.0132655
2026-06-01T10:56:21.759395,0.1,0.23,-0.87,51.5373396,-0.0132655
2026-06-01T10:56:21.819747,0.03,0.34,-0.9,51.5373396,-0.0132655
2026-06-01T10:56:21.880270,-0.31,0.53,-1,51.5373396,-0.0132655
2026-06-01T10:56:21.940033,0.13,0.14,-1.07,51.5373396,-0.0132655
2026-06-01T10:56:22.032601,0.19,0.22,-1.07,51.5373396,-0.0132655
2026-06-01T10:56:22.088878,-0.27,0.38,-0.81,51.5373396,-0.0132655
2026-06-01T10:56:22.149868,-0.07,0.27,-0.89,51.5373396,-0.0132655
2026-06-01T10:56:22.209328,0.02,0.2,-0.95,51.5373396,-0.0132655
2026-06-01T10:56:22.269452,-0.06,0.32,-0.98,51.5373396,-0.0132655
2026-06-01T10:56:22.357755,0.03,0.25,-0.92,51.5373655,-0.0132823
2026-06-01T10:56:22.420724,-0.11,0.37,-0.88,51.5373655,-0.0132823
2026-06-01T10:56:22.481727,0.06,0.24,-1,51.5373655,-0.0132823
2026-06-01T10:56:22.542632,0.11,0.3,-0.85,51.5373655,-0.0132823
2026-06-01T10:56:22.600339,-0.01,0.31,-1.02,51.5373655,-0.0132823
2026-06-01T10:56:22.687570,0,0.32,-0.93,51.5373655,-0.0132823
2026-06-01T10:56:22.749752,0,0.4,-0.99,51.5373655,-0.0132823
2026-06-01T10:56:22.809080,0.03,0.45,-0.94,51.5373655,-0.0132823
2026-06-01T10:56:22.869537,0.07,0.27,-1.07,51.5373655,-0.0132823
2026-06-01T10:56:22.929045,-0.1,0.46,-0.87,51.5373655,-0.0132823
2026-06-01T10:56:23.018823,0.01,0.28,-0.96,51.5373655,-0.0132823
2026-06-01T10:56:23.077650,0.07,0.36,-1.04,51.5373655,-0.0132823
2026-06-01T10:56:23.140109,-0.03,0.34,-0.99,51.5373655,-0.0132823
2026-06-01T10:56:23.199853,-0.05,0.24,-0.89,51.5373655,-0.0132823
2026-06-01T10:56:23.261232,-0.07,0.38,-0.95,51.5373655,-0.0132823
2026-06-01T10:56:23.350476,0.01,0.31,-0.96,51.537391,-0.0132969
2026-06-01T10:56:23.407139,-0.1,0.39,-0.88,51.537391,-0.0132969
2026-06-01T10:56:23.470831,0,0.28,-1.08,51.537391,-0.0132969
2026-06-01T10:56:23.530138,-0.09,0.36,-0.9,51.537391,-0.0132969
2026-06-01T10:56:23.590227,-0.07,0.31,-0.89,51.537391,-0.0132969
2026-06-01T10:56:23.679618,-0.04,0.26,-1.11,51.537391,-0.0132969
2026-06-01T10:56:23.742355,0.06,0.28,-0.92,51.537391,-0.0132969
2026-06-01T10:56:23.801886,-0.03,0.34,-1.02,51.537391,-0.0132969
2026-06-01T10:56:23.860655,-0.03,0.31,-1.04,51.537391,-0.0132969
2026-06-01T10:56:23.950098,0.03,0.39,-0.93,51.537391,-0.0132969
2026-06-01T10:56:24.009044,0.02,0.32,-0.91,51.537391,-0.0132969
2026-06-01T10:56:24.068535,-0.12,0.38,-1.09,51.537391,-0.0132969
2026-06-01T10:56:24.129213,-0.02,0.38,-0.9,51.537391,-0.0132969
2026-06-01T10:56:24.220972,0.12,0.35,-0.89,51.537391,-0.0132969
2026-06-01T10:56:24.283053,0.11,0.3,-0.97,51.537391,-0.0132969
2026-06-01T10:56:24.341261,-0.09,0.38,-0.95,51.5374186,-0.0133103
2026-06-01T10:56:24.399107,0.01,0.26,-1.02,51.5374186,-0.0133103
2026-06-01T10:56:24.457512,0.05,0.3,-0.98,51.5374186,-0.0133103
2026-06-01T10:56:24.548588,0,0.31,-1.04,51.5374186,-0.0133103
2026-06-01T10:56:24.609980,0.05,0.27,-1.03,51.5374186,-0.0133103
2026-06-01T10:56:24.670169,-0.09,0.33,-0.97,51.5374186,-0.0133103
2026-06-01T10:56:24.728012,-0.02,0.36,-1,51.5374186,-0.0133103
2026-06-01T10:56:24.788890,-0.07,0.4,-0.82,51.5374186,-0.0133103
2026-06-01T10:56:24.881427,-0.02,0.26,-1.05,51.5374186,-0.0133103
2026-06-01T10:56:24.940049,-0.07,0.33,-0.98,51.5374186,-0.0133103
2026-06-01T10:56:25.000165,0.03,0.27,-0.87,51.5374186,-0.0133103
2026-06-01T10:56:25.066099,0.08,0.25,-1,51.5374186,-0.0133103
2026-06-01T10:56:25.124092,-0.07,0.38,-1,51.5374186,-0.0133103
2026-06-01T10:56:25.207850,0.03,0.3,-1.05,51.5374186,-0.0133103
2026-06-01T10:56:25.270238,0.07,0.31,-0.9,51.5374186,-0.0133103
2026-06-01T10:56:25.327460,-0.02,0.28,-0.95,51.5374457,-0.0133239
2026-06-01T10:56:25.389240,-0.01,0.35,-0.95,51.5374457,-0.0133239
2026-06-01T10:56:25.448948,0.03,0.37,-0.87,51.5374457,-0.0133239
2026-06-01T10:56:25.538879,0.02,0.23,-1.13,51.5374457,-0.0133239
2026-06-01T10:56:25.597999,-0.02,0.32,-0.98,51.5374457,-0.0133239
2026-06-01T10:56:25.659542,0.04,0.33,-0.9,51.5374457,-0.0133239
2026-06-01T10:56:25.720238,-0.07,0.34,-1.03,51.5374457,-0.0133239
2026-06-01T10:56:25.778291,0.1,0.28,-0.84,51.5374457,-0.0133239
2026-06-01T10:56:25.868975,-0.06,0.27,-1.05,51.5374457,-0.0133239
2026-06-01T10:56:25.929550,-0.15,0.38,-0.94,51.5374457,-0.0133239
2026-06-01T10:56:25.988163,0,0.3,-0.96,51.5374457,-0.0133239
2026-06-01T10:56:26.049311,-0.11,0.25,-0.84,51.5374457,-0.0133239
2026-06-01T10:56:26.142035,-0.11,0.33,-0.88,51.5374457,-0.0133239
2026-06-01T10:56:26.202093,-0.06,0.24,-0.95,51.5374457,-0.0133239
2026-06-01T10:56:26.257932,0.04,0.23,-1.06,51.5374457,-0.0133239
2026-06-01T10:56:26.317783,-0.07,0.34,-0.99,51.5374457,-0.0133239
2026-06-01T10:56:26.381691,0.04,0.21,-0.94,51.5374721,-0.0133404
2026-06-01T10:56:26.471091,0.08,0.17,-0.98,51.5374721,-0.0133404
2026-06-01T10:56:26.530887,-0.11,0.44,-0.97,51.5374721,-0.0133404
2026-06-01T10:56:26.589987,-0.02,0.37,-0.95,51.5374721,-0.0133404
2026-06-01T10:56:26.649840,0.01,0.36,-0.96,51.5374721,-0.0133404
2026-06-01T10:56:26.712228,-0.08,0.33,-0.97,51.5374721,-0.0133404
2026-06-01T10:56:26.797602,0.07,0.09,-0.99,51.5374721,-0.0133404
2026-06-01T10:56:26.858812,-0.04,0.39,-1.02,51.5374721,-0.0133404
2026-06-01T10:56:26.920004,-0.11,0.44,-0.98,51.5374721,-0.0133404
2026-06-01T10:56:26.981266,-0.02,0.29,-0.91,51.5374721,-0.0133404
2026-06-01T10:56:27.042377,-0.01,0.3,-1.02,51.5374721,-0.0133404
2026-06-01T10:56:27.128041,0.02,0.3,-0.97,51.5374721,-0.0133404
2026-06-01T10:56:27.187492,-0.15,0.44,-0.91,51.5374721,-0.0133404
2026-06-01T10:56:27.250261,-0.03,0.17,-0.94,51.5374721,-0.0133404
2026-06-01T10:56:27.310352,0,0.35,-1,51.5374721,-0.0133404
2026-06-01T10:56:27.370439,0.01,0.31,-0.79,51.537499,-0.0133555
2026-06-01T10:56:27.460692,0.04,0.21,-1.07,51.537499,-0.0133555
2026-06-01T10:56:27.520925,-0.02,0.31,-1,51.537499,-0.0133555
2026-06-01T10:56:27.582234,-0.06,0.48,-0.79,51.537499,-0.0133555
2026-06-01T10:56:27.641789,0.12,0.28,-0.93,51.537499,-0.0133555
2026-06-01T10:56:27.702799,0.11,0.34,-0.96,51.537499,-0.0133555
2026-06-01T10:56:27.788437,-0.03,0.32,-0.99,51.537499,-0.0133555
2026-06-01T10:56:27.851737,-0.05,0.34,-0.93,51.537499,-0.0133555
2026-06-01T10:56:27.912155,0.13,0.35,-1.02,51.537499,-0.0133555
2026-06-01T10:56:27.972012,0,0.4,-0.92,51.537499,-0.0133555
2026-06-01T10:56:28.057403,0.04,0.29,-0.99,51.537499,-0.0133555
2026-06-01T10:56:28.118957,-0.07,0.33,-0.92,51.537499,-0.0133555
2026-06-01T10:56:28.181705,-0.14,0.22,-0.93,51.537499,-0.0133555
2026-06-01T10:56:28.241375,0,0.19,-1.03,51.537499,-0.0133555
2026-06-01T10:56:28.304443,-0.04,0.37,-0.82,51.537499,-0.0133555
2026-06-01T10:56:28.390240,0,0.29,-1.03,51.5375263,-0.0133674
2026-06-01T10:56:28.450140,-0.08,0.34,-1.04,51.5375263,-0.0133674
2026-06-01T10:56:28.511610,0.02,0.31,-1.07,51.5375263,-0.0133674
2026-06-01T10:56:28.571348,-0.04,0.33,-0.94,51.5375263,-0.0133674
2026-06-01T10:56:28.627967,-0.07,0.29,-0.9,51.5375263,-0.0133674
2026-06-01T10:56:28.718874,-0.09,0.26,-1.07,51.5375263,-0.0133674
2026-06-01T10:56:28.779264,0.03,0.31,-0.96,51.5375263,-0.0133674
2026-06-01T10:56:28.837497,0.05,0.25,-1.13,51.5375263,-0.0133674
2026-06-01T10:56:28.897164,-0.13,0.33,-0.96,51.5375263,-0.0133674
2026-06-01T10:56:28.959032,0.06,0.33,-0.99,51.5375263,-0.0133674
2026-06-01T10:56:29.047904,0.1,0.3,-1.05,51.5375263,-0.0133674
2026-06-01T10:56:29.110390,-0.01,0.37,-0.89,51.5375263,-0.0133674
2026-06-01T10:56:29.167950,-0.03,0.37,-1,51.5375263,-0.0133674
2026-06-01T10:56:29.227524,0.08,0.2,-0.93,51.5375263,-0.0133674
2026-06-01T10:56:29.288073,-0.06,0.31,-0.86,51.5375263,-0.0133674
2026-06-01T10:56:29.378676,0.04,0.23,-1.03,51.537554,-0.0133744
2026-06-01T10:56:29.438852,-0.03,0.32,-0.99,51.537554,-0.0133744
2026-06-01T10:56:29.500292,-0.11,0.39,-0.93,51.537554,-0.0133744
2026-06-01T10:56:29.558043,-0.02,0.25,-0.99,51.537554,-0.0133744
2026-06-01T10:56:29.617996,-0.02,0.27,-0.92,51.537554,-0.0133744
2026-06-01T10:56:29.707562,0.02,0.38,-1.09,51.537554,-0.0133744
2026-06-01T10:56:29.768041,-0.01,0.45,-0.9,51.537554,-0.0133744
2026-06-01T10:56:29.828200,0.05,0.31,-0.96,51.537554,-0.0133744
2026-06-01T10:56:29.887634,0,0.35,-0.97,51.537554,-0.0133744
2026-06-01T10:56:29.948763,-0.05,0.32,-1.01,51.537554,-0.0133744
2026-06-01T10:56:30.037691,0.02,0.3,-0.98,51.537554,-0.0133744
2026-06-01T10:56:30.098508,-0.02,0.35,-0.94,51.537554,-0.0133744
2026-06-01T10:56:30.157573,0.04,0.37,-0.92,51.537554,-0.0133744
2026-06-01T10:56:30.248404,0.06,0.35,-1.08,51.537554,-0.0133744
2026-06-01T10:56:30.307162,-0.06,0.43,-0.96,51.537554,-0.0133744
2026-06-01T10:56:30.367050,-0.01,0.25,-0.96,51.537581,-0.0133736
2026-06-01T10:56:30.427516,0.03,0.37,-0.92,51.537581,-0.0133736
2026-06-01T10:56:30.487944,0.09,0.27,-0.99,51.537581,-0.0133736
2026-06-01T10:56:30.578542,-0.23,0.37,-0.95,51.537581,-0.0133736
2026-06-01T10:56:30.638677,0.06,0.24,-1.02,51.537581,-0.0133736
2026-06-01T10:56:30.697792,0.04,0.49,-0.9,51.537581,-0.0133736
2026-06-01T10:56:30.757372,0.07,0.25,-0.9,51.537581,-0.0133736
2026-06-01T10:56:30.816173,-0.09,0.24,-0.96,51.537581,-0.0133736
2026-06-01T10:56:30.908005,-0.11,0.47,-1.07,51.537581,-0.0133736
2026-06-01T10:56:30.967672,-0.04,0.29,-0.87,51.537581,-0.0133736
2026-06-01T10:56:31.028150,-0.08,0.34,-0.89,51.537581,-0.0133736
2026-06-01T10:56:31.086985,-0.09,0.27,-1.01,51.537581,-0.0133736
2026-06-01T10:56:31.147883,-0.08,0.28,-1.11,51.537581,-0.0133736
2026-06-01T10:56:31.238337,0.08,0.23,-1.01,51.537581,-0.0133736
2026-06-01T10:56:31.298401,-0.03,0.37,-0.8,51.537581,-0.0133736
2026-06-01T10:56:31.356349,-0.01,0.4,-0.99,51.5376087,-0.0133665
2026-06-01T10:56:31.417101,-0.01,0.31,-1.18,51.5376087,-0.0133665
2026-06-01T10:56:31.477097,-0.09,0.3,-0.9,51.5376087,-0.0133665
2026-06-01T10:56:31.567791,0.11,0.38,-1.04,51.5376087,-0.0133665
2026-06-01T10:56:31.626545,0.03,0.3,-0.95,51.5376087,-0.0133665
2026-06-01T10:56:31.686320,0.03,0.21,-0.82,51.5376087,-0.0133665
2026-06-01T10:56:31.747578,-0.04,0.3,-1.08,51.5376087,-0.0133665
2026-06-01T10:56:31.809644,0.04,0.29,-1,51.5376087,-0.0133665
2026-06-01T10:56:31.898401,0.08,0.35,-0.92,51.5376087,-0.0133665
2026-06-01T10:56:31.958099,0,0.37,-1.06,51.5376087,-0.0133665
2026-06-01T10:56:32.017550,-0.14,0.2,-0.96,51.5376087,-0.0133665
2026-06-01T10:56:32.077909,-0.06,0.21,-0.97,51.5376087,-0.0133665
2026-06-01T10:56:32.167397,0.01,0.36,-0.98,51.5376087,-0.0133665
2026-06-01T10:56:32.228190,-0.06,0.33,-1.06,51.5376087,-0.0133665
2026-06-01T10:56:32.288383,-0.04,0.28,-1.06,51.5376087,-0.0133665
2026-06-01T10:56:32.346273,0.01,0.29,-1.06,51.5376395,-0.0133709
2026-06-01T10:56:32.408804,0,0.29,-0.97,51.5376395,-0.0133709
2026-06-01T10:56:32.498444,-0.02,0.25,-1.01,51.5376395,-0.0133709
2026-06-01T10:56:32.557606,-0.05,0.31,-0.9,51.5376395,-0.0133709
2026-06-01T10:56:32.617265,0,0.32,-1.01,51.5376395,-0.0133709
2026-06-01T10:56:32.677319,0.08,0.37,-1,51.5376395,-0.0133709
2026-06-01T10:56:32.741181,0.07,0.26,-0.89,51.5376395,-0.0133709
2026-06-01T10:56:32.826559,0.02,0.29,-0.92,51.5376395,-0.0133709
2026-06-01T10:56:32.887087,0.06,0.38,-0.94,51.5376395,-0.0133709
2026-06-01T10:56:32.947470,0,0.3,-0.95,51.5376395,-0.0133709
2026-06-01T10:56:33.008212,0.1,0.25,-1.19,51.5376395,-0.0133709
2026-06-01T10:56:33.068674,0.03,0.33,-0.96,51.5376395,-0.0133709
2026-06-01T10:56:33.158525,0.04,0.21,-1.1,51.5376395,-0.0133709
2026-06-01T10:56:33.219058,-0.06,0.38,-0.95,51.5376395,-0.0133709
2026-06-01T10:56:33.278239,-0.11,0.39,-0.92,51.5376395,-0.0133709
2026-06-01T10:56:33.336963,-0.06,0.33,-0.71,51.5376701,-0.0133772
2026-06-01T10:56:33.398385,-0.03,0.19,-1.07,51.5376701,-0.0133772
2026-06-01T10:56:33.488929,-0.12,0.3,-1.07,51.5376701,-0.0133772
2026-06-01T10:56:33.548409,0,0.32,-0.78,51.5376701,-0.0133772
2026-06-01T10:56:33.608102,0.1,0.4,-1.21,51.5376701,-0.0133772
2026-06-01T10:56:33.670034,0.01,0.41,-0.97,51.5376701,-0.0133772
2026-06-01T10:56:33.730196,0.02,0.28,-0.9,51.5376701,-0.0133772
2026-06-01T10:56:33.820752,0.06,0.21,-1.01,51.5376701,-0.0133772
2026-06-01T10:56:33.881385,-0.12,0.34,-1.04,51.5376701,-0.0133772
2026-06-01T10:56:33.939209,-0.02,0.33,-1.02,51.5376701,-0.0133772
2026-06-01T10:56:33.998887,-0.03,0.38,-0.98,51.5376701,-0.0133772
2026-06-01T10:56:34.060720,-0.14,0.41,-0.86,51.5376701,-0.0133772
2026-06-01T10:56:34.148013,0.11,0.2,-1.11,51.5376701,-0.0133772
2026-06-01T10:56:34.207822,0.05,0.3,-1.16,51.5376701,-0.0133772
2026-06-01T10:56:34.268373,0.05,0.3,-0.93,51.5376701,-0.0133772
2026-06-01T10:56:34.357699,-0.03,0.26,-0.99,51.5377004,-0.013386
2026-06-01T10:56:34.417922,0,0.32,-1.05,51.5377004,-0.013386
2026-06-01T10:56:34.477626,0.06,0.25,-0.99,51.5377004,-0.013386
2026-06-01T10:56:34.538851,-0.07,0.4,-1.07,51.5377004,-0.013386
2026-06-01T10:56:34.598435,-0.03,0.2,-0.9,51.5377004,-0.013386
2026-06-01T10:56:34.687435,-0.04,0.35,-0.93,51.5377004,-0.013386
2026-06-01T10:56:34.751255,0.13,0.24,-1,51.5377004,-0.013386
2026-06-01T10:56:34.810828,0,0.25,-1.01,51.5377004,-0.013386
2026-06-01T10:56:34.871765,-0.11,0.17,-0.94,51.5377004,-0.013386
2026-06-01T10:56:34.930157,0,0.48,-0.96,51.5377004,-0.013386
2026-06-01T10:56:35.021605,0,0.41,-1.09,51.5377004,-0.013386
2026-06-01T10:56:35.080579,0.24,0.13,-1.11,51.5377004,-0.013386
2026-06-01T10:56:35.141719,-0.09,0.41,-0.85,51.5377004,-0.013386
2026-06-01T10:56:35.201091,-0.04,0.5,-0.95,51.5377004,-0.013386
2026-06-01T10:56:35.264054,0.09,0.25,-0.88,51.5377004,-0.013386
2026-06-01T10:56:35.349543,-0.04,0.29,-1.09,51.53773,-0.0133957
2026-06-01T10:56:35.411793,0.02,0.24,-0.92,51.53773,-0.0133957
2026-06-01T10:56:35.471319,-0.03,0.37,-0.95,51.53773,-0.0133957
2026-06-01T10:56:35.530511,-0.08,0.32,-1.01,51.53773,-0.0133957
2026-06-01T10:56:35.590996,-0.14,0.36,-0.88,51.53773,-0.0133957
2026-06-01T10:56:35.650856,0.02,0.26,-0.97,51.53773,-0.0133957
2026-06-01T10:56:35.740746,-0.08,0.27,-0.97,51.53773,-0.0133957
2026-06-01T10:56:35.831546,0,0.34,-0.93,51.53773,-0.0133957
2026-06-01T10:56:35.858669,0.05,0.18,-0.89,51.53773,-0.0133957
2026-06-01T10:56:35.920857,0.06,0.28,-1.01,51.53773,-0.0133957
2026-06-01T10:56:36.012469,0.01,0.19,-1.03,51.53773,-0.0133957
2026-06-01T10:56:36.069334,0,0.43,-0.97,51.53773,-0.0133957
2026-06-01T10:56:36.127553,-0.03,0.29,-1,51.53773,-0.0133957
2026-06-01T10:56:36.194988,-0.02,0.31,-0.96,51.53773,-0.0133957
2026-06-01T10:56:36.282225,-0.07,0.28,-0.92,51.53773,-0.0133957
2026-06-01T10:56:36.340068,0.01,0.29,-1.02,51.5377589,-0.0134022
2026-06-01T10:56:36.400773,0.03,0.33,-1.02,51.5377589,-0.0134022
2026-06-01T10:56:36.461324,-0.02,0.28,-0.98,51.5377589,-0.0134022
2026-06-01T10:56:36.520754,0.07,0.32,-0.91,51.5377589,-0.0134022
2026-06-01T10:56:36.612311,0.05,0.25,-0.94,51.5377589,-0.0134022
2026-06-01T10:56:36.672292,0.01,0.26,-0.96,51.5377589,-0.0134022
2026-06-01T10:56:36.730069,-0.03,0.33,-1.06,51.5377589,-0.0134022
2026-06-01T10:56:36.788026,0.04,0.38,-0.96,51.5377589,-0.0134022
2026-06-01T10:56:36.848344,-0.04,0.3,-0.99,51.5377589,-0.0134022
2026-06-01T10:56:36.939463,0.05,0.32,-0.95,51.5377589,-0.0134022
2026-06-01T10:56:36.998492,-0.03,0.36,-0.98,51.5377589,-0.0134022
2026-06-01T10:56:37.060814,-0.07,0.28,-0.92,51.5377589,-0.0134022
2026-06-01T10:56:37.120037,0.05,0.13,-0.97,51.5377589,-0.0134022
2026-06-01T10:56:37.178204,0.03,0.37,-0.93,51.5377589,-0.0134022
2026-06-01T10:56:37.269481,0,0.31,-1.02,51.5377589,-0.0134022
2026-06-01T10:56:37.326482,-0.04,0.28,-1,51.537788,-0.0133959
2026-06-01T10:56:37.389971,-0.04,0.29,-1.08,51.537788,-0.0133959
2026-06-01T10:56:37.450252,-0.03,0.21,-0.88,51.537788,-0.0133959
2026-06-01T10:56:37.512872,-0.03,0.3,-0.93,51.537788,-0.0133959
2026-06-01T10:56:37.601825,-0.02,0.32,-0.85,51.537788,-0.0133959
2026-06-01T10:56:37.662607,0.12,0.29,-0.98,51.537788,-0.0133959
2026-06-01T10:56:37.719090,0,0.23,-1.01,51.537788,-0.0133959
2026-06-01T10:56:37.779211,0.03,0.33,-1,51.537788,-0.0133959
2026-06-01T10:56:37.845072,0.06,0.29,-1.08,51.537788,-0.0133959
2026-06-01T10:56:37.927172,-0.04,0.27,-0.92,51.537788,-0.0133959
2026-06-01T10:56:37.992243,-0.01,0.28,-0.94,51.537788,-0.0133959
2026-06-01T10:56:38.047579,-0.07,0.25,-1.01,51.537788,-0.0133959
2026-06-01T10:56:38.110123,0.03,0.29,-1.03,51.537788,-0.0133959
2026-06-01T10:56:38.169776,0,0.31,-1.04,51.537788,-0.0133959
2026-06-01T10:56:38.260060,0.1,0.3,-1,51.537788,-0.0133959
2026-06-01T10:56:38.317982,0.02,0.25,-0.99,51.537788,-0.0133959
2026-06-01T10:56:38.381810,0,0.22,-0.9,51.5378131,-0.013376
2026-06-01T10:56:38.441034,-0.02,0.27,-1.03,51.5378131,-0.013376
2026-06-01T10:56:38.528602,0.04,0.32,-1.03,51.5378131,-0.013376
2026-06-01T10:56:38.588918,0.01,0.39,-0.91,51.5378131,-0.013376
2026-06-01T10:56:38.648779,-0.02,0.41,-0.94,51.5378131,-0.013376
2026-06-01T10:56:38.707420,0.04,0.29,-1.06,51.5378131,-0.013376
2026-06-01T10:56:38.767635,0.03,0.29,-1.03,51.5378131,-0.013376
2026-06-01T10:56:38.862458,-0.07,0.38,-0.95,51.5378131,-0.013376
2026-06-01T10:56:38.923453,0.08,0.27,-0.98,51.5378131,-0.013376
2026-06-01T10:56:38.981879,-0.03,0.28,-0.89,51.5378131,-0.013376
2026-06-01T10:56:39.042766,0.04,0.27,-0.99,51.5378131,-0.013376
2026-06-01T10:56:39.100976,0.07,0.29,-0.97,51.5378131,-0.013376
2026-06-01T10:56:39.189272,-0.02,0.34,-1.06,51.5378131,-0.013376
2026-06-01T10:56:39.248070,0.03,0.42,-0.9,51.5378131,-0.013376
2026-06-01T10:56:39.307251,0.01,0.25,-0.98,51.5378131,-0.013376
2026-06-01T10:56:39.367859,-0.01,0.35,-0.93,51.5378302,-0.0133443
2026-06-01T10:56:39.427751,0.11,0.36,-0.94,51.5378302,-0.0133443
2026-06-01T10:56:39.518018,-0.04,0.23,-0.96,51.5378302,-0.0133443
2026-06-01T10:56:39.578468,0.07,0.09,-1.12,51.5378302,-0.0133443
2026-06-01T10:56:39.640476,-0.01,0.26,-1.06,51.5378302,-0.0133443
2026-06-01T10:56:39.697962,-0.02,0.31,-1.03,51.5378302,-0.0133443
2026-06-01T10:56:39.757923,-0.04,0.23,-0.94,51.5378302,-0.0133443
2026-06-01T10:56:39.848703,0.08,0.24,-1.04,51.5378302,-0.0133443
2026-06-01T10:56:39.908248,0.06,0.36,-0.98,51.5378302,-0.0133443
2026-06-01T10:56:39.969220,-0.06,0.27,-0.99,51.5378302,-0.0133443
2026-06-01T10:56:40.027423,0.01,0.23,-1.05,51.5378302,-0.0133443
2026-06-01T10:56:40.087904,0.01,0.28,-1,51.5378302,-0.0133443
2026-06-01T10:56:40.178049,0.06,0.21,-1,51.5378302,-0.0133443
2026-06-01T10:56:40.238920,0.1,0.28,-0.93,51.5378302,-0.0133443
2026-06-01T10:56:40.297313,0.06,0.36,-1.01,51.5378302,-0.0133443
2026-06-01T10:56:40.388996,-0.02,0.25,-1.03,51.5378368,-0.013305
2026-06-01T10:56:40.448255,-0.01,0.39,-1.02,51.5378368,-0.013305
2026-06-01T10:56:40.508384,-0.06,0.31,-0.89,51.5378368,-0.013305
2026-06-01T10:56:40.575943,0.02,0.19,-1,51.5378368,-0.013305
2026-06-01T10:56:40.628696,0.07,0.29,-1.02,51.5378368,-0.013305
2026-06-01T10:56:40.721855,0.05,0.26,-1.08,51.5378368,-0.013305
2026-06-01T10:56:40.778633,0.09,0.3,-0.97,51.5378368,-0.013305
2026-06-01T10:56:40.837944,-0.03,0.22,-0.92,51.5378368,-0.013305
2026-06-01T10:56:40.898948,0,0.24,-0.95,51.5378368,-0.013305
2026-06-01T10:56:40.957975,0.01,0.18,-0.98,51.5378368,-0.013305
2026-06-01T10:56:41.048567,0.01,0.33,-1.04,51.5378368,-0.013305
2026-06-01T10:56:41.108849,-0.01,0.33,-0.94,51.5378368,-0.013305
2026-06-01T10:56:41.169029,0.08,0.28,-1,51.5378368,-0.013305
2026-06-01T10:56:41.226839,-0.03,0.32,-1.02,51.5378368,-0.013305
2026-06-01T10:56:41.288146,0,0.33,-1.11,51.5378368,-0.013305
2026-06-01T10:56:41.378260,0.08,0.33,-1.09,51.5378293,-0.0132694
2026-06-01T10:56:41.438564,0.04,0.23,-1.05,51.5378293,-0.0132694
2026-06-01T10:56:41.501506,-0.11,0.34,-0.87,51.5378293,-0.0132694
2026-06-01T10:56:41.561112,0.03,0.23,-0.94,51.5378293,-0.0132694
2026-06-01T10:56:41.622490,0.09,0.3,-0.94,51.5378293,-0.0132694
2026-06-01T10:56:41.710769,0.02,0.33,-1.02,51.5378293,-0.0132694
2026-06-01T10:56:41.800856,-0.02,0.5,-0.86,51.5378293,-0.0132694
2026-06-01T10:56:41.829619,-0.02,0.19,-1.02,51.5378293,-0.0132694
2026-06-01T10:56:41.890641,0,0.26,-0.97,51.5378293,-0.0132694
2026-06-01T10:56:41.950565,-0.11,0.34,-0.93,51.5378293,-0.0132694
2026-06-01T10:56:42.040629,-0.01,0.27,-0.88,51.5378293,-0.0132694
2026-06-01T10:56:42.099058,0.14,0.28,-1.2,51.5378293,-0.0132694
2026-06-01T10:56:42.157597,-0.03,0.4,-0.97,51.5378293,-0.0132694
2026-06-01T10:56:42.221637,-0.04,0.3,-0.91,51.5378293,-0.0132694
2026-06-01T10:56:42.281137,0.1,0.32,-0.97,51.5378293,-0.0132694
2026-06-01T10:56:42.368519,-0.05,0.45,-0.88,51.5378127,-0.0132394
2026-06-01T10:56:42.431598,-0.02,0.26,-1.25,51.5378127,-0.0132394
2026-06-01T10:56:42.491176,0.01,0.46,-1.21,51.5378127,-0.0132394
2026-06-01T10:56:42.557496,-0.05,0.36,-0.93,51.5378127,-0.0132394
2026-06-01T10:56:42.641898,0,0.4,-0.79,51.5378127,-0.0132394
2026-06-01T10:56:42.699389,0.13,0.1,-1.04,51.5378127,-0.0132394
2026-06-01T10:56:42.762048,-0.07,0.18,-1.03,51.5378127,-0.0132394
2026-06-01T10:56:42.820764,0.03,0.15,-1.17,51.5378127,-0.0132394
2026-06-01T10:56:42.907432,-0.1,0.38,-1,51.5378127,-0.0132394
2026-06-01T10:56:42.967959,0.06,0.28,-0.92,51.5378127,-0.0132394
2026-06-01T10:56:43.028732,0.08,0.27,-0.94,51.5378127,-0.0132394
2026-06-01T10:56:43.091723,-0.11,0.34,-0.96,51.5378127,-0.0132394
2026-06-01T10:56:43.148034,-0.03,0.29,-1.02,51.5378127,-0.0132394
2026-06-01T10:56:43.241850,0.1,0.25,-0.94,51.5378127,-0.0132394
2026-06-01T10:56:43.304761,-0.1,0.3,-0.47,51.5378127,-0.0132394
2026-06-01T10:56:43.359054,0.04,0.23,-1.14,51.5377871,-0.0132244
2026-06-01T10:56:43.420665,0.27,0.21,-1.12,51.5377871,-0.0132244
2026-06-01T10:56:43.482081,-0.11,0.39,-0.99,51.5377871,-0.0132244
2026-06-01T10:56:43.571178,0.08,0.22,-1.02,51.5377871,-0.0132244
2026-06-01T10:56:43.628907,-0.16,0.45,-0.87,51.5377871,-0.0132244
2026-06-01T10:56:43.691255,-0.17,0.37,-0.79,51.5377871,-0.0132244
2026-06-01T10:56:43.748203,0.17,0.19,-1.09,51.5377871,-0.0132244
2026-06-01T10:56:43.809985,-0.04,0.34,-1.07,51.5377871,-0.0132244
2026-06-01T10:56:43.901795,-0.09,0.42,-1.17,51.5377871,-0.0132244
2026-06-01T10:56:43.961384,0.1,0.31,-0.93,51.5377871,-0.0132244
2026-06-01T10:56:44.021271,0.08,0.31,-1.01,51.5377871,-0.0132244
2026-06-01T10:56:44.082476,0.03,0.22,-0.84,51.5377871,-0.0132244
2026-06-01T10:56:44.139748,-0.1,0.39,-1.23,51.5377871,-0.0132244
2026-06-01T10:56:44.232277,-0.19,0.5,-1.07,51.5377871,-0.0132244
2026-06-01T10:56:44.288391,-0.13,0.21,-0.97,51.5377871,-0.0132244
2026-06-01T10:56:44.348524,-0.06,0.14,-0.86,51.5377574,-0.0132156
2026-06-01T10:56:44.412564,0.28,0.37,-0.97,51.5377574,-0.0132156
2026-06-01T10:56:44.500976,0.12,0.31,-1.06,51.5377574,-0.0132156
2026-06-01T10:56:44.558839,-0.09,0.41,-0.79,51.5377574,-0.0132156
2026-06-01T10:56:44.621551,0.12,0.04,-1.13,51.5377574,-0.0132156
2026-06-01T10:56:44.682145,-0.07,0.42,-0.86,51.5377574,-0.0132156
2026-06-01T10:56:44.739348,-0.03,0.32,-1.02,51.5377574,-0.0132156
2026-06-01T10:56:44.832229,-0.1,0.37,-0.98,51.5377574,-0.0132156
2026-06-01T10:56:44.888867,0.06,0.35,-1.08,51.5377574,-0.0132156
2026-06-01T10:56:44.951811,-0.02,0.27,-0.99,51.5377574,-0.0132156
2026-06-01T10:56:45.012047,-0.01,0.29,-0.96,51.5377574,-0.0132156
2026-06-01T10:56:45.068406,0.04,0.16,-0.94,51.5377574,-0.0132156
2026-06-01T10:56:45.163022,-0.03,0.34,-1.02,51.5377574,-0.0132156
2026-06-01T10:56:45.218690,0.08,0.28,-0.77,51.5377574,-0.0132156
2026-06-01T10:56:45.280566,-0.07,0.43,-0.93,51.5377574,-0.0132156
2026-06-01T10:56:45.340093,0.03,0.35,-1.1,51.5377574,-0.0132156
2026-06-01T10:56:45.400957,0.04,0.27,-1.04,51.537725,-0.0132137
2026-06-01T10:56:45.489799,0.08,0.27,-1.03,51.537725,-0.0132137
2026-06-01T10:56:45.550269,-0.11,0.38,-0.95,51.537725,-0.0132137
2026-06-01T10:56:45.611276,0.03,0.31,-0.95,51.537725,-0.0132137
2026-06-01T10:56:45.670827,0.1,0.07,-1.04,51.537725,-0.0132137
2026-06-01T10:56:45.733246,-0.11,0.36,-0.82,51.537725,-0.0132137
2026-06-01T10:56:45.821637,0.12,0.34,-0.94,51.537725,-0.0132137
2026-06-01T10:56:45.881488,0.02,0.36,-1.05,51.537725,-0.0132137
2026-06-01T10:56:45.939133,0.15,0.27,-1.03,51.537725,-0.0132137
2026-06-01T10:56:46.000228,0.11,0.25,-1.06,51.537725,-0.0132137
2026-06-01T10:56:46.059514,0.01,0.31,-0.98,51.537725,-0.0132137
2026-06-01T10:56:46.152409,0.1,0.37,-1.05,51.537725,-0.0132137
2026-06-01T10:56:46.210948,0.2,0.2,-1.04,51.537725,-0.0132137
2026-06-01T10:56:46.272186,0.06,0.21,-0.91,51.537725,-0.0132137
2026-06-01T10:56:46.327699,-0.08,0.18,-0.91,51.537725,-0.0132137
2026-06-01T10:56:46.389239,0.04,0.34,-1.04,51.5376932,-0.0132133
2026-06-01T10:56:46.482695,-0.01,0.24,-1.17,51.5376932,-0.0132133
2026-06-01T10:56:46.539762,0.11,0.32,-1.03,51.5376932,-0.0132133
2026-06-01T10:56:46.600972,0.02,0.31,-0.92,51.5376932,-0.0132133
2026-06-01T10:56:46.662319,0.01,0.23,-0.87,51.5376932,-0.0132133
2026-06-01T10:56:46.747780,0,0.31,-0.96,51.5376932,-0.0132133
2026-06-01T10:56:46.810787,0.01,0.1,-1.13,51.5376932,-0.0132133
2026-06-01T10:56:46.871516,0.06,0.25,-1.02,51.5376932,-0.0132133
2026-06-01T10:56:46.931030,-0.1,0.45,-1.02,51.5376932,-0.0132133
2026-06-01T10:56:46.992769,0.06,0.25,-1,51.5376932,-0.0132133
2026-06-01T10:56:47.082530,0.08,0.28,-0.98,51.5376932,-0.0132133
2026-06-01T10:56:47.141126,0.03,0.23,-1.22,51.5376932,-0.0132133
2026-06-01T10:56:47.200253,-0.02,0.31,-0.91,51.5376932,-0.0132133
2026-06-01T10:56:47.260618,0.07,0.15,-0.99,51.5376932,-0.0132133
2026-06-01T10:56:47.318081,0.04,0.33,-0.91,51.5376932,-0.0132133
2026-06-01T10:56:47.415786,0.12,0.14,-1.03,51.5376607,-0.0132141
2026-06-01T10:56:47.469411,0.04,0.38,-0.93,51.5376607,-0.0132141
2026-06-01T10:56:47.534976,-0.02,0.37,-1.22,51.5376607,-0.0132141
2026-06-01T10:56:47.591625,0.06,0.16,-0.82,51.5376607,-0.0132141
2026-06-01T10:56:47.652408,0.04,0.35,-1.02,51.5376607,-0.0132141
2026-06-01T10:56:47.739932,0.11,0.3,-1.06,51.5376607,-0.0132141
2026-06-01T10:56:47.802200,-0.02,0.34,-0.92,51.5376607,-0.0132141
2026-06-01T10:56:47.857602,0.06,0.17,-0.93,51.5376607,-0.0132141
2026-06-01T10:56:47.918089,-0.09,0.21,-0.81,51.5376607,-0.0132141
2026-06-01T10:56:47.981039,0.02,0.28,-0.9,51.5376607,-0.0132141
2026-06-01T10:56:48.070854,-0.03,0.34,-1.15,51.5376607,-0.0132141
2026-06-01T10:56:48.130010,0.07,0.27,-1.04,51.5376607,-0.0132141
2026-06-01T10:56:48.188426,-0.06,0.31,-0.93,51.5376607,-0.0132141
2026-06-01T10:56:48.251470,0.03,0.25,-0.95,51.5376607,-0.0132141
2026-06-01T10:56:48.337617,-0.01,0.3,-0.97,51.5376289,-0.0132157
2026-06-01T10:56:48.400903,0.1,0.21,-1.02,51.5376289,-0.0132157
2026-06-01T10:56:48.461140,-0.01,0.26,-0.96,51.5376289,-0.0132157
2026-06-01T10:56:48.522056,0.02,0.3,-0.91,51.5376289,-0.0132157
2026-06-01T10:56:48.612427,0.07,0.28,-1.04,51.5376289,-0.0132157
2026-06-01T10:56:48.670915,0.02,0.32,-1.17,51.5376289,-0.0132157
2026-06-01T10:56:48.733792,-0.06,0.24,-1.06,51.5376289,-0.0132157
2026-06-01T10:56:48.790211,-0.07,0.23,-0.79,51.5376289,-0.0132157
2026-06-01T10:56:48.882611,0.06,0.4,-1.02,51.5376289,-0.0132157
2026-06-01T10:56:48.941673,-0.03,0.25,-0.83,51.5376289,-0.0132157
2026-06-01T10:56:49.003193,0.03,0.17,-0.96,51.5376289,-0.0132157
2026-06-01T10:56:49.057497,-0.01,0.33,-0.97,51.5376289,-0.0132157
2026-06-01T10:56:49.120389,-0.04,0.24,-1.08,51.5376289,-0.0132157
2026-06-01T10:56:49.181082,0.08,0.26,-1.01,51.5376289,-0.0132157
2026-06-01T10:56:49.271023,0.05,0.2,-1.07,51.5376289,-0.0132157
2026-06-01T10:56:49.328806,-0.07,0.4,-0.84,51.5376289,-0.0132157
2026-06-01T10:56:49.389829,0.02,0.38,-0.95,51.5375972,-0.0132168
2026-06-01T10:56:49.453264,0.01,0.3,-0.9,51.5375972,-0.0132168
2026-06-01T10:56:49.510595,0.08,0.21,-0.87,51.5375972,-0.0132168
2026-06-01T10:56:49.602382,0.1,0.26,-1.18,51.5375972,-0.0132168
2026-06-01T10:56:49.660919,-0.02,0.32,-0.93,51.5375972,-0.0132168
2026-06-01T10:56:49.723630,-0.04,0.34,-0.83,51.5375972,-0.0132168
2026-06-01T10:56:49.782040,0.05,0.27,-1.03,51.5375972,-0.0132168
2026-06-01T10:56:49.841786,0.03,0.29,-0.99,51.5375972,-0.0132168
2026-06-01T10:56:49.928452,0.05,0.36,-0.96,51.5375972,-0.0132168
2026-06-01T10:56:49.990230,0.08,0.28,-0.89,51.5375972,-0.0132168
2026-06-01T10:56:50.048099,0.01,0.2,-0.92,51.5375972,-0.0132168
2026-06-01T10:56:50.111087,-0.06,0.25,-0.95,51.5375972,-0.0132168
2026-06-01T10:56:50.172586,-0.15,0.35,-0.99,51.5375972,-0.0132168
2026-06-01T10:56:50.261540,-0.05,0.51,-0.97,51.5375972,-0.0132168
2026-06-01T10:56:50.318695,0.05,0.24,-1.01,51.5375972,-0.0132168
2026-06-01T10:56:50.378167,-0.07,0.36,-0.98,51.5375645,-0.0132173
2026-06-01T10:56:50.439011,-0.04,0.39,-0.93,51.5375645,-0.0132173
2026-06-01T10:56:50.498729,-0.01,0.29,-0.98,51.5375645,-0.0132173
2026-06-01T10:56:50.591093,0.01,0.25,-1.09,51.5375645,-0.0132173
2026-06-01T10:56:50.649823,0.03,0.2,-0.9,51.5375645,-0.0132173
2026-06-01T10:56:50.711601,-0.11,0.37,-0.88,51.5375645,-0.0132173
2026-06-01T10:56:50.800331,-0.02,0.3,-0.94,51.5375645,-0.0132173
2026-06-01T10:56:50.862228,-0.11,0.27,-1.01,51.5375645,-0.0132173
2026-06-01T10:56:50.921552,0.07,0.27,-1.05,51.5375645,-0.0132173
2026-06-01T10:56:50.981657,-0.04,0.29,-1.04,51.5375645,-0.0132173
2026-06-01T10:56:51.038041,0,0.36,-0.88,51.5375645,-0.0132173
2026-06-01T10:56:51.131233,0.02,0.21,-0.9,51.5375645,-0.0132173
2026-06-01T10:56:51.191213,0.01,0.22,-1.09,51.5375645,-0.0132173
2026-06-01T10:56:51.247366,-0.07,0.3,-0.99,51.5375645,-0.0132173
2026-06-01T10:56:51.308730,-0.12,0.39,-0.79,51.5375645,-0.0132173
2026-06-01T10:56:51.368503,0.09,0.27,-0.87,51.5375322,-0.0132187
2026-06-01T10:56:51.462646,0.16,0.28,-0.91,51.5375322,-0.0132187
2026-06-01T10:56:51.520480,0,0.37,-0.95,51.5375322,-0.0132187
2026-06-01T10:56:51.581727,0.13,0.21,-1.1,51.5375322,-0.0132187
2026-06-01T10:56:51.637799,0.09,0.22,-0.97,51.5375322,-0.0132187
2026-06-01T10:56:51.698120,-0.01,0.2,-1,51.5375322,-0.0132187
2026-06-01T10:56:51.788399,-0.01,0.27,-0.86,51.5375322,-0.0132187
2026-06-01T10:56:51.851876,0.02,0.35,-1.07,51.5375322,-0.0132187
2026-06-01T10:56:51.908150,-0.07,0.31,-1.09,51.5375322,-0.0132187
2026-06-01T10:56:51.970731,0.08,0.28,-0.96,51.5375322,-0.0132187
2026-06-01T10:56:52.031513,-0.02,0.32,-0.9,51.5375322,-0.0132187
2026-06-01T10:56:52.122183,-0.03,0.29,-0.95,51.5375322,-0.0132187
2026-06-01T10:56:52.180345,0.02,0.23,-1,51.5375322,-0.0132187
2026-06-01T10:56:52.241143,0.04,0.17,-1.09,51.5375322,-0.0132187
2026-06-01T10:56:52.302865,0.05,0.34,-0.92,51.5375322,-0.0132187
2026-06-01T10:56:52.357887,0.03,0.23,-0.93,51.5375001,-0.0132238
2026-06-01T10:56:52.452023,0.04,0.3,-0.89,51.5375001,-0.0132238
2026-06-01T10:56:52.512091,0.05,0.37,-1.11,51.5375001,-0.0132238
2026-06-01T10:56:52.570878,-0.03,0.22,-1.02,51.5375001,-0.0132238
2026-06-01T10:56:52.630751,-0.08,0.48,-1.01,51.5375001,-0.0132238
2026-06-01T10:56:52.721852,0.1,0.17,-1.06,51.5375001,-0.0132238
2026-06-01T10:56:52.779780,0.05,0.07,-0.86,51.5375001,-0.0132238
2026-06-01T10:56:52.841913,-0.12,0.4,-1.08,51.5375001,-0.0132238
2026-06-01T10:56:52.905093,0.1,0.22,-1.07,51.5375001,-0.0132238
2026-06-01T10:56:52.961212,-0.07,0.41,-0.89,51.5375001,-0.0132238
2026-06-01T10:56:53.048113,0.07,0.21,-1.13,51.5375001,-0.0132238
2026-06-01T10:56:53.112089,0.12,0.44,-1.22,51.5375001,-0.0132238
2026-06-01T10:56:53.171803,0,0.14,-0.77,51.5375001,-0.0132238
2026-06-01T10:56:53.231157,0.07,0.3,-1.08,51.5375001,-0.0132238
2026-06-01T10:56:53.288046,0.04,0.15,-0.94,51.5375001,-0.0132238
2026-06-01T10:56:53.377244,-0.26,0.41,-1.13,51.5374666,-0.0132294
2026-06-01T10:56:53.442085,0.14,0.17,-0.98,51.5374666,-0.0132294
2026-06-01T10:56:53.502411,0.09,0.31,-1.02,51.5374666,-0.0132294
2026-06-01T10:56:53.561809,-0.18,0.33,-0.85,51.5374666,-0.0132294
2026-06-01T10:56:53.624341,0.02,0.28,-0.78,51.5374666,-0.0132294
2026-06-01T10:56:53.712356,-0.07,0.34,-0.91,51.5374666,-0.0132294
2026-06-01T10:56:53.770903,0.12,0.2,-1.12,51.5374666,-0.0132294
2026-06-01T10:56:53.830248,0.09,0.18,-1.05,51.5374666,-0.0132294
2026-06-01T10:56:53.890316,-0.08,0.29,-0.86,51.5374666,-0.0132294
2026-06-01T10:56:53.950851,0.07,0.25,-1.02,51.5374666,-0.0132294
2026-06-01T10:56:54.041752,-0.03,0.42,-1.05,51.5374666,-0.0132294
2026-06-01T10:56:54.101029,0.03,0.31,-1.07,51.5374666,-0.0132294
2026-06-01T10:56:54.160476,-0.03,0.35,-0.87,51.5374666,-0.0132294
2026-06-01T10:56:54.222250,-0.02,0.35,-0.91,51.5374666,-0.0132294
2026-06-01T10:56:54.281337,0.04,0.22,-0.94,51.5374666,-0.0132294
2026-06-01T10:56:54.368290,-0.06,0.18,-1.04,51.5374326,-0.0132306
2026-06-01T10:56:54.430912,0.13,0.15,-1.11,51.5374326,-0.0132306
2026-06-01T10:56:54.490355,0.09,0.37,-0.82,51.5374326,-0.0132306
2026-06-01T10:56:54.552051,0.01,0.37,-0.98,51.5374326,-0.0132306
2026-06-01T10:56:54.610934,0.02,0.31,-1,51.5374326,-0.0132306
2026-06-01T10:56:54.701480,0.01,0.27,-1,51.5374326,-0.0132306
2026-06-01T10:56:54.759610,0.03,0.24,-0.98,51.5374326,-0.0132306
2026-06-01T10:56:54.820510,-0.01,0.2,-1.08,51.5374326,-0.0132306
2026-06-01T10:56:54.910250,0.11,0.24,-1.01,51.5374326,-0.0132306
2026-06-01T10:56:54.973465,-0.09,0.39,-0.94,51.5374326,-0.0132306
2026-06-01T10:56:55.029214,0.01,0.34,-1.02,51.5374326,-0.0132306
2026-06-01T10:56:55.092020,0.05,0.36,-0.96,51.5374326,-0.0132306
2026-06-01T10:56:55.151400,0.04,0.22,-0.97,51.5374326,-0.0132306
2026-06-01T10:56:55.243276,0.12,0.31,-1.14,51.5374326,-0.0132306
2026-06-01T10:56:55.304933,-0.02,0.23,-0.91,51.5374326,-0.0132306
2026-06-01T10:56:55.357832,0.04,0.21,-1.05,51.5373973,-0.0132285
2026-06-01T10:56:55.418929,0.04,0.21,-0.9,51.5373973,-0.0132285
2026-06-01T10:56:55.481521,0.09,0.24,-1.01,51.5373973,-0.0132285
2026-06-01T10:56:55.571204,0.09,0.36,-1.16,51.5373973,-0.0132285
2026-06-01T10:56:55.630408,0.03,0.35,-0.83,51.5373973,-0.0132285
2026-06-01T10:56:55.691689,-0.06,0.24,-1.09,51.5373973,-0.0132285
2026-06-01T10:56:55.749048,-0.07,0.3,-0.77,51.5373973,-0.0132285
2026-06-01T10:56:55.810754,0.11,0.22,-0.9,51.5373973,-0.0132285
2026-06-01T10:56:55.901546,0.15,0.12,-1.06,51.5373973,-0.0132285
2026-06-01T10:56:55.961457,0.09,0.33,-0.99,51.5373973,-0.0132285
2026-06-01T10:56:56.019060,-0.11,0.3,-0.92,51.5373973,-0.0132285
2026-06-01T10:56:56.080637,0.05,0.36,-0.87,51.5373973,-0.0132285
2026-06-01T10:56:56.138810,0.08,0.27,-0.97,51.5373973,-0.0132285
2026-06-01T10:56:56.231243,-0.03,0.28,-1.06,51.5373973,-0.0132285
2026-06-01T10:56:56.289045,-0.03,0.22,-1.04,51.5373973,-0.0132285
2026-06-01T10:56:56.348677,0.12,0.18,-1.11,51.5373614,-0.0132244
2026-06-01T10:56:56.411727,0.05,0.19,-0.93,51.5373614,-0.0132244
2026-06-01T10:56:56.474111,0.08,0.24,-0.89,51.5373614,-0.0132244
2026-06-01T10:56:56.561164,0.02,0.3,-1.02,51.5373614,-0.0132244
2026-06-01T10:56:56.619920,-0.07,0.37,-1.07,51.5373614,-0.0132244
2026-06-01T10:56:56.683009,0.04,0.27,-0.99,51.5373614,-0.0132244
2026-06-01T10:56:56.739465,-0.1,0.35,-0.88,51.5373614,-0.0132244
2026-06-01T10:56:56.829041,0.01,0.23,-1,51.5373614,-0.0132244
2026-06-01T10:56:56.924784,0.21,0.28,-1.06,51.5373614,-0.0132244
2026-06-01T10:56:56.947438,0.13,0.38,-0.94,51.5373614,-0.0132244
2026-06-01T10:56:57.010500,0.09,0.24,-0.81,51.5373614,-0.0132244
2026-06-01T10:56:57.071825,-0.07,0.29,-0.91,51.5373614,-0.0132244
2026-06-01T10:56:57.161826,0.01,0.3,-1.05,51.5373614,-0.0132244
2026-06-01T10:56:57.221825,0.06,0.29,-1.08,51.5373614,-0.0132244
2026-06-01T10:56:57.283269,-0.16,0.31,-0.88,51.5373614,-0.0132244
2026-06-01T10:56:57.338738,-0.01,0.22,-0.91,51.5373614,-0.0132244
2026-06-01T10:56:57.404860,0.05,0.3,-1.01,51.5373253,-0.0132211
2026-06-01T10:56:57.493002,0,0.24,-1.03,51.5373253,-0.0132211
2026-06-01T10:56:57.549209,0.14,0.27,-0.98,51.5373253,-0.0132211
2026-06-01T10:56:57.608958,0.06,0.41,-0.92,51.5373253,-0.0132211
2026-06-01T10:56:57.670366,0.05,0.24,-1.2,51.5373253,-0.0132211
2026-06-01T10:56:57.731033,0.04,0.23,-0.98,51.5373253,-0.0132211
2026-06-01T10:56:57.820737,-0.12,0.35,-1.04,51.5373253,-0.0132211
2026-06-01T10:56:57.882374,0.11,0.2,-0.96,51.5373253,-0.0132211
2026-06-01T10:56:57.938852,0.08,0.3,-0.95,51.5373253,-0.0132211
2026-06-01T10:56:58.002944,0.05,0.31,-1.07,51.5373253,-0.0132211
2026-06-01T10:56:58.058281,0.07,0.27,-1.06,51.5373253,-0.0132211
2026-06-01T10:56:58.152848,0.05,0.25,-0.9,51.5373253,-0.0132211
2026-06-01T10:56:58.207863,-0.17,0.24,-0.93,51.5373253,-0.0132211
2026-06-01T10:56:58.271767,-0.03,0.36,-0.97,51.5373253,-0.0132211
2026-06-01T10:56:58.331788,0.06,0.31,-0.99,51.5373253,-0.0132211
2026-06-01T10:56:58.389317,0.06,0.19,-1.01,51.5372903,-0.0132126
2026-06-01T10:56:58.481200,0.03,0.13,-0.9,51.5372903,-0.0132126
2026-06-01T10:56:58.540788,-0.02,0.31,-1.06,51.5372903,-0.0132126
2026-06-01T10:56:58.600305,0.08,0.22,-1,51.5372903,-0.0132126
2026-06-01T10:56:58.663843,-0.01,0.39,-0.99,51.5372903,-0.0132126
2026-06-01T10:56:58.720527,0.03,0.28,-1,51.5372903,-0.0132126
2026-06-01T10:56:58.811466,-0.14,0.27,-1.01,51.5372903,-0.0132126
2026-06-01T10:56:58.869439,0.06,0.27,-0.97,51.5372903,-0.0132126
2026-06-01T10:56:58.931867,0.08,0.24,-0.92,51.5372903,-0.0132126
2026-06-01T10:56:58.991309,-0.05,0.32,-0.94,51.5372903,-0.0132126
2026-06-01T10:56:59.077843,0.02,0.37,-1.04,51.5372903,-0.0132126
2026-06-01T10:56:59.140370,0.03,0.24,-1.06,51.5372903,-0.0132126
2026-06-01T10:56:59.201218,-0.02,0.27,-0.94,51.5372903,-0.0132126
2026-06-01T10:56:59.263324,-0.06,0.32,-0.94,51.5372903,-0.0132126
2026-06-01T10:56:59.317930,0.03,0.31,-1.09,51.5372903,-0.0132126
2026-06-01T10:56:59.412239,-0.03,0.26,-0.96,51.5372571,-0.0131962
2026-06-01T10:56:59.470773,0.03,0.16,-1.08,51.5372571,-0.0131962
2026-06-01T10:56:59.530469,0.04,0.22,-0.91,51.5372571,-0.0131962
2026-06-01T10:56:59.590771,-0.09,0.29,-0.98,51.5372571,-0.0131962
2026-06-01T10:56:59.648072,0.03,0.17,-1.09,51.5372571,-0.0131962
2026-06-01T10:56:59.738853,-0.06,0.38,-1.1,51.5372571,-0.0131962
2026-06-01T10:56:59.800266,0.21,0.33,-1.03,51.5372571,-0.0131962
2026-06-01T10:56:59.891368,-0.02,0.26,-0.88,51.5372571,-0.0131962
2026-06-01T10:56:59.918122,0.08,0.21,-0.89,51.5372571,-0.0131962
2026-06-01T10:56:59.979809,0.38,-0.1,-1.27,51.5372571,-0.0131962
2026-06-01T10:57:00.072657,-0.27,0.61,-1.1,51.5372571,-0.0131962
2026-06-01T10:57:00.129959,0.11,0.34,-1.1,51.5372571,-0.0131962
2026-06-01T10:57:00.191159,-0.28,0.32,-0.23,51.5372571,-0.0131962
2026-06-01T10:57:00.249864,-0.01,0.07,-0.77,51.5372571,-0.0131962
2026-06-01T10:57:00.309645,0.12,0.38,-1.19,51.5372571,-0.0131962
2026-06-01T10:57:00.402285,-0.08,0.12,-1.79,51.5372238,-0.0131782
2026-06-01T10:57:00.462340,-0.21,0.82,-1.05,51.5372238,-0.0131782
2026-06-01T10:57:00.521626,-0.17,0.53,-0.9,51.5372238,-0.0131782
2026-06-01T10:57:00.577682,-0.05,0.06,-0.74,51.5372238,-0.0131782
2026-06-01T10:57:00.641459,0.1,0.2,-0.87,51.5372238,-0.0131782
2026-06-01T10:57:00.730510,0.17,0.19,-1.3,51.5372238,-0.0131782
2026-06-01T10:57:00.791248,-0.21,0.32,-1.06,51.5372238,-0.0131782
2026-06-01T10:57:00.850836,-0.05,0.46,-0.79,51.5372238,-0.0131782
2026-06-01T10:57:00.942077,0.16,0.36,-0.86,51.5372238,-0.0131782
2026-06-01T10:57:01.004438,-0.11,0.25,-1.03,51.5372238,-0.0131782
2026-06-01T10:57:01.059463,0.09,0.29,-1.21,51.5372238,-0.0131782
2026-06-01T10:57:01.118506,-0.09,0.24,-1.09,51.5372238,-0.0131782
2026-06-01T10:57:01.181133,0.09,0.34,-0.8,51.5372238,-0.0131782
2026-06-01T10:57:01.269272,0.02,0.15,-0.94,51.5372238,-0.0131782
2026-06-01T10:57:01.330617,-0.06,0.35,-0.94,51.5372238,-0.0131782
2026-06-01T10:57:01.391564,-0.03,0.29,-1.07,51.5371912,-0.0131631
2026-06-01T10:57:01.450066,-0.02,0.28,-1.08,51.5371912,-0.0131631
2026-06-01T10:57:01.510835,0.04,0.29,-0.87,51.5371912,-0.0131631
2026-06-01T10:57:01.600794,0.08,0.28,-0.81,51.5371912,-0.0131631
2026-06-01T10:57:01.658465,-0.05,0.17,-0.9,51.5371912,-0.0131631
2026-06-01T10:57:01.720579,-0.08,0.14,-1.21,51.5371912,-0.0131631
2026-06-01T10:57:01.784700,-0.06,0.32,-0.99,51.5371912,-0.0131631
2026-06-01T10:57:01.840695,0.03,0.41,-0.91,51.5371912,-0.0131631
2026-06-01T10:57:01.929946,-0.03,0.24,-0.83,51.5371912,-0.0131631
2026-06-01T10:57:01.990244,0.07,0.35,-1.03,51.5371912,-0.0131631
2026-06-01T10:57:02.048238,0.01,0.24,-1.12,51.5371912,-0.0131631
2026-06-01T10:57:02.108817,0.09,0.29,-1.01,51.5371912,-0.0131631
2026-06-01T10:57:02.168494,0.04,0.21,-1.01,51.5371912,-0.0131631
2026-06-01T10:57:02.261348,-0.08,0.35,-1.09,51.5371912,-0.0131631
2026-06-01T10:57:02.316765,0.07,0.34,-0.85,51.5371912,-0.0131631
2026-06-01T10:57:02.382655,-0.09,0.38,-1,51.53716,-0.0131491
2026-06-01T10:57:02.443187,0.01,0.32,-0.96,51.53716,-0.0131491
2026-06-01T10:57:02.498632,-0.02,0.29,-0.99,51.53716,-0.0131491
2026-06-01T10:57:02.590616,0.01,0.28,-1.06,51.53716,-0.0131491
2026-06-01T10:57:02.648039,-0.08,0.3,-0.86,51.53716,-0.0131491
2026-06-01T10:57:02.709207,0,0.07,-0.99,51.53716,-0.0131491
2026-06-01T10:57:02.771893,-0.05,0.28,-0.91,51.53716,-0.0131491
2026-06-01T10:57:02.830752,0.04,0.43,-0.94,51.53716,-0.0131491
2026-06-01T10:57:02.921668,-0.08,0.27,-0.96,51.53716,-0.0131491
2026-06-01T10:57:02.981205,0.08,0.4,-1,51.53716,-0.0131491
2026-06-01T10:57:03.038713,0.1,0.25,-0.96,51.53716,-0.0131491
2026-06-01T10:57:03.101090,-0.04,0.28,-0.95,51.53716,-0.0131491
2026-06-01T10:57:03.190777,0.02,0.24,-1.02,51.53716,-0.0131491
2026-06-01T10:57:03.250198,0.17,0.2,-0.98,51.53716,-0.0131491
2026-06-01T10:57:03.309547,0.04,0.28,-0.85,51.53716,-0.0131491
2026-06-01T10:57:03.368874,0,0.24,-0.95,51.5371271,-0.0131361
2026-06-01T10:57:03.430512,-0.01,0.25,-1.03,51.5371271,-0.0131361
2026-06-01T10:57:03.521995,-0.03,0.36,-0.99,51.5371271,-0.0131361
2026-06-01T10:57:03.580484,0.04,0.23,-1.03,51.5371271,-0.0131361
2026-06-01T10:57:03.641841,-0.14,0.42,-0.79,51.5371271,-0.0131361
2026-06-01T10:57:03.701699,0.09,0.19,-1.05,51.5371271,-0.0131361
2026-06-01T10:57:03.761867,0.01,0.17,-1.05,51.5371271,-0.0131361
2026-06-01T10:57:03.852891,0.03,0.17,-1,51.5371271,-0.0131361
2026-06-01T10:57:03.911143,-0.07,0.54,-0.73,51.5371271,-0.0131361
2026-06-01T10:57:03.972551,0.11,0.33,-1.22,51.5371271,-0.0131361
2026-06-01T10:57:04.032035,0,0.11,-1,51.5371271,-0.0131361
2026-06-01T10:57:04.092092,-0.09,0.31,-0.95,51.5371271,-0.0131361
2026-06-01T10:57:04.181049,0.15,0.34,-0.86,51.5371271,-0.0131361
2026-06-01T10:57:04.239269,-0.04,0.21,-0.98,51.5371271,-0.0131361
2026-06-01T10:57:04.303055,0.06,0.16,-0.87,51.5371271,-0.0131361
2026-06-01T10:57:04.357974,0.12,0.24,-1.05,51.5370958,-0.0131205
2026-06-01T10:57:04.420835,-0.1,0.12,-0.68,51.5370958,-0.0131205
2026-06-01T10:57:04.510884,-0.06,0.31,-0.99,51.5370958,-0.0131205
2026-06-01T10:57:04.572439,-0.01,0.37,-0.87,51.5370958,-0.0131205
2026-06-01T10:57:04.632116,-0.13,0.3,-0.97,51.5370958,-0.0131205
2026-06-01T10:57:04.692365,0.09,0.15,-1,51.5370958,-0.0131205
2026-06-01T10:57:04.750639,-0.1,0.24,-1.01,51.5370958,-0.0131205
2026-06-01T10:57:04.841440,0.03,0.2,-1,51.5370958,-0.0131205
2026-06-01T10:57:04.898985,-0.08,0.36,-0.99,51.5370958,-0.0131205
2026-06-01T10:57:04.961422,0.08,0.2,-1.06,51.5370958,-0.0131205
2026-06-01T10:57:05.050617,0.03,0.27,-1.06,51.5370958,-0.0131205
2026-06-01T10:57:05.111946,-0.01,0.28,-0.84,51.5370958,-0.0131205
2026-06-01T10:57:05.169956,0.03,0.29,-1,51.5370958,-0.0131205
2026-06-01T10:57:05.232268,-0.01,0.36,-1.11,51.5370958,-0.0131205
2026-06-01T10:57:05.292179,0,0.39,-0.95,51.5370958,-0.0131205
2026-06-01T10:57:05.381602,0.1,0.3,-0.99,51.5370617,-0.0131003
2026-06-01T10:57:05.442460,-0.01,0.22,-0.71,51.5370617,-0.0131003
2026-06-01T10:57:05.502149,0.19,0.02,-1.04,51.5370617,-0.0131003
2026-06-01T10:57:05.561816,-0.18,0.12,-1.2,51.5370617,-0.0131003
2026-06-01T10:57:05.620979,0.06,0.21,-1.09,51.5370617,-0.0131003
2026-06-01T10:57:05.711203,-0.1,0.32,-0.85,51.5370617,-0.0131003
2026-06-01T10:57:05.768963,0.02,0.34,-0.81,51.5370617,-0.0131003
2026-06-01T10:57:05.831055,0.01,0.14,-0.81,51.5370617,-0.0131003
2026-06-01T10:57:05.888367,0,0.19,-1.14,51.5370617,-0.0131003
2026-06-01T10:57:05.951330,-0.02,0.15,-1.03,51.5370617,-0.0131003
2026-06-01T10:57:06.039198,-0.15,0.36,-0.85,51.5370617,-0.0131003
2026-06-01T10:57:06.101540,-0.1,0.42,-0.93,51.5370617,-0.0131003
2026-06-01T10:57:06.160944,0.16,0.2,-0.93,51.5370617,-0.0131003
2026-06-01T10:57:06.220778,0.03,0.41,-1.36,51.5370617,-0.0131003
2026-06-01T10:57:06.281056,0.05,0.26,-0.96,51.5370617,-0.0131003
2026-06-01T10:57:06.372081,-0.01,0.31,-0.76,51.5370298,-0.0130805
2026-06-01T10:57:06.430028,0.11,0.26,-0.72,51.5370298,-0.0130805
2026-06-01T10:57:06.491406,-0.06,0.31,-1.15,51.5370298,-0.0130805
2026-06-01T10:57:06.547800,-0.01,0.21,-1.15,51.5370298,-0.0130805
2026-06-01T10:57:06.611155,-0.12,0.48,-0.89,51.5370298,-0.0130805
2026-06-01T10:57:06.702335,0,0.3,-0.92,51.5370298,-0.0130805
2026-06-01T10:57:06.759223,-0.04,0.34,-0.86,51.5370298,-0.0130805
2026-06-01T10:57:06.823435,0,0.38,-0.93,51.5370298,-0.0130805
2026-06-01T10:57:06.882152,0,0.24,-0.83,51.5370298,-0.0130805
2026-06-01T10:57:06.939985,-0.1,0.47,-1.11,51.5370298,-0.0130805
2026-06-01T10:57:07.030864,0.08,0.23,-0.96,51.5370298,-0.0130805
2026-06-01T10:57:07.092465,-0.1,0.62,-0.95,51.5370298,-0.0130805
2026-06-01T10:57:07.151627,0.08,0.13,-0.82,51.5370298,-0.0130805
2026-06-01T10:57:07.211093,-0.05,0.39,-1.03,51.5370298,-0.0130805
2026-06-01T10:57:07.301127,0.18,0.28,-1.38,51.5370298,-0.0130805
2026-06-01T10:57:07.358168,0.01,0.55,-1.22,51.5369985,-0.0130575
2026-06-01T10:57:07.420274,-0.09,0.32,-0.77,51.5369985,-0.0130575
2026-06-01T10:57:07.478345,-0.08,0.26,-0.85,51.5369985,-0.0130575
2026-06-01T10:57:07.540615,0.06,0.2,-0.9,51.5369985,-0.0130575
2026-06-01T10:57:07.632135,0,0.39,-1.2,51.5369985,-0.0130575
2026-06-01T10:57:07.691379,-0.09,0.41,-1.1,51.5369985,-0.0130575
2026-06-01T10:57:07.751090,0,0.38,-0.95,51.5369985,-0.0130575
2026-06-01T10:57:07.810981,-0.01,0.45,-0.88,51.5369985,-0.0130575
2026-06-01T10:57:07.869753,-0.11,0.24,-0.89,51.5369985,-0.0130575
2026-06-01T10:57:07.961912,0.15,0.06,-1.17,51.5369985,-0.0130575
2026-06-01T10:57:08.022689,-0.06,0.22,-1.07,51.5369985,-0.0130575
2026-06-01T10:57:08.080218,0.15,0.26,-1.04,51.5369985,-0.0130575
2026-06-01T10:57:08.140328,0.12,0.27,-0.87,51.5369985,-0.0130575
2026-06-01T10:57:08.201964,0.04,0.25,-0.95,51.5369985,-0.0130575
2026-06-01T10:57:08.290914,-0.09,0.29,-1.02,51.5369985,-0.0130575
2026-06-01T10:57:08.349025,-0.12,0.35,-0.9,51.5369719,-0.0130248
2026-06-01T10:57:08.409896,-0.08,0.19,-1.01,51.5369719,-0.0130248
2026-06-01T10:57:08.471176,0.16,0.17,-0.89,51.5369719,-0.0130248
2026-06-01T10:57:08.531833,0.11,0.28,-0.98,51.5369719,-0.0130248
2026-06-01T10:57:08.622042,-0.14,0.5,-1.16,51.5369719,-0.0130248
2026-06-01T10:57:08.683130,0.06,0.26,-0.93,51.5369719,-0.0130248
2026-06-01T10:57:08.738537,0.02,0.35,-1.01,51.5369719,-0.0130248
2026-06-01T10:57:08.800613,0.07,0.2,-0.92,51.5369719,-0.0130248
2026-06-01T10:57:08.862095,0.08,0.26,-1.25,51.5369719,-0.0130248
2026-06-01T10:57:08.949976,0.06,0.28,-1.03,51.5369719,-0.0130248
2026-06-01T10:57:09.011891,-0.05,0.35,-0.87,51.5369719,-0.0130248
2026-06-01T10:57:09.070399,0.02,0.23,-0.98,51.5369719,-0.0130248
2026-06-01T10:57:09.130309,-0.11,0.45,-0.81,51.5369719,-0.0130248
2026-06-01T10:57:09.222675,0.09,0.14,-1.04,51.5369719,-0.0130248
2026-06-01T10:57:09.280940,-0.03,0.36,-1.05,51.5369719,-0.0130248
2026-06-01T10:57:09.337195,-0.06,0.32,-0.89,51.536946,-0.012993
2026-06-01T10:57:09.399365,-0.04,0.34,-0.95,51.536946,-0.012993
2026-06-01T10:57:09.463378,-0.05,0.29,-0.95,51.536946,-0.012993
2026-06-01T10:57:09.550241,0.1,0.16,-1.17,51.536946,-0.012993
2026-06-01T10:57:09.610542,0.11,0.23,-0.99,51.536946,-0.012993
2026-06-01T10:57:09.673009,-0.15,0.34,-0.89,51.536946,-0.012993
2026-06-01T10:57:09.731173,-0.03,0.26,-0.84,51.536946,-0.012993
2026-06-01T10:57:09.790513,-0.07,0.32,-0.98,51.536946,-0.012993
2026-06-01T10:57:09.883172,0.07,0.29,-0.92,51.536946,-0.012993
2026-06-01T10:57:09.939546,0,0.33,-1.1,51.536946,-0.012993
2026-06-01T10:57:10.001875,0.05,0.3,-0.85,51.536946,-0.012993
2026-06-01T10:57:10.059166,-0.03,0.28,-0.98,51.536946,-0.012993
2026-06-01T10:57:10.120565,0.14,0.17,-0.97,51.536946,-0.012993
2026-06-01T10:57:10.210402,-0.01,0.33,-0.98,51.536946,-0.012993
2026-06-01T10:57:10.271554,0.02,0.33,-1.01,51.536946,-0.012993
2026-06-01T10:57:10.327535,-0.04,0.28,-0.95,51.536946,-0.012993
2026-06-01T10:57:10.389331,0.06,0.3,-0.87,51.5369164,-0.0129651
2026-06-01T10:57:10.482202,0,0.33,-0.89,51.5369164,-0.0129651
2026-06-01T10:57:10.539881,-0.02,0.24,-0.98,51.5369164,-0.0129651
2026-06-01T10:57:10.600327,0.02,0.25,-1.07,51.5369164,-0.0129651
2026-06-01T10:57:10.660796,0.04,0.3,-0.92,51.5369164,-0.0129651
2026-06-01T10:57:10.721794,0,0.27,-0.96,51.5369164,-0.0129651
2026-06-01T10:57:10.811067,-0.01,0.22,-0.96,51.5369164,-0.0129651
2026-06-01T10:57:10.870933,-0.06,0.28,-1.02,51.5369164,-0.0129651
2026-06-01T10:57:10.930701,0.08,0.33,-1.02,51.5369164,-0.0129651
2026-06-01T10:57:10.992773,0.09,0.27,-0.91,51.5369164,-0.0129651
2026-06-01T10:57:11.048884,0.05,0.35,-1,51.5369164,-0.0129651
2026-06-01T10:57:11.141165,0.04,0.24,-0.97,51.5369164,-0.0129651
2026-06-01T10:57:11.200662,0.02,0.36,-0.88,51.5369164,-0.0129651
2026-06-01T10:57:11.261236,0.05,0.22,-1.01,51.5369164,-0.0129651
2026-06-01T10:57:11.317929,-0.09,0.28,-0.97,51.5369164,-0.0129651
2026-06-01T10:57:11.408753,0.09,0.28,-0.93,51.5368859,-0.0129427
2026-06-01T10:57:11.469840,-0.02,0.31,-0.94,51.5368859,-0.0129427
2026-06-01T10:57:11.529526,-0.09,0.24,-1.05,51.5368859,-0.0129427
2026-06-01T10:57:11.589509,-0.08,0.31,-0.96,51.5368859,-0.0129427
2026-06-01T10:57:11.650289,0.04,0.23,-1.08,51.5368859,-0.0129427
2026-06-01T10:57:11.739104,0.15,0.24,-0.94,51.5368859,-0.0129427
2026-06-01T10:57:11.800847,-0.04,0.33,-1.03,51.5368859,-0.0129427
2026-06-01T10:57:11.859535,-0.02,0.37,-0.98,51.5368859,-0.0129427
2026-06-01T10:57:11.920204,0.03,0.32,-1.05,51.5368859,-0.0129427
2026-06-01T10:57:11.981231,0.09,0.24,-0.87,51.5368859,-0.0129427
2026-06-01T10:57:12.071002,0.05,0.33,-1.04,51.5368859,-0.0129427
2026-06-01T10:57:12.128616,0.02,0.29,-0.86,51.5368859,-0.0129427
2026-06-01T10:57:12.191483,-0.01,0.33,-1.03,51.5368859,-0.0129427
2026-06-01T10:57:12.251045,0.07,0.22,-1.02,51.5368859,-0.0129427
2026-06-01T10:57:12.309621,0.04,0.32,-0.99,51.5368859,-0.0129427
2026-06-01T10:57:12.402182,0.12,0.24,-0.95,51.5368554,-0.0129189
2026-06-01T10:57:12.491079,-0.04,0.37,-0.96,51.5368554,-0.0129189
2026-06-01T10:57:12.525924,0.02,0.38,-1.03,51.5368554,-0.0129189
2026-06-01T10:57:12.582433,-0.04,0.3,-1.03,51.5368554,-0.0129189
2026-06-01T10:57:12.644060,-0.05,0.17,-1.06,51.5368554,-0.0129189
2026-06-01T10:57:12.732329,0.12,0.29,-0.99,51.5368554,-0.0129189
2026-06-01T10:57:12.791873,0.04,0.33,-0.96,51.5368554,-0.0129189
2026-06-01T10:57:12.850721,-0.02,0.36,-1.03,51.5368554,-0.0129189
2026-06-01T10:57:12.908139,-0.04,0.33,-1,51.5368554,-0.0129189
2026-06-01T10:57:12.968239,0.01,0.24,-0.92,51.5368554,-0.0129189
2026-06-01T10:57:13.060518,0.06,0.25,-0.98,51.5368554,-0.0129189
2026-06-01T10:57:13.120632,-0.12,0.4,-0.75,51.5368554,-0.0129189
2026-06-01T10:57:13.179634,0,0.36,-0.87,51.5368554,-0.0129189
2026-06-01T10:57:13.270770,0.02,0.41,-1.08,51.5368554,-0.0129189
2026-06-01T10:57:13.338010,0.14,0.03,-1.16,51.5368258,-0.0128887
2026-06-01T10:57:13.391521,-0.05,0.65,-0.96,51.5368258,-0.0128887
2026-06-01T10:57:13.450587,-0.01,0.17,-1.15,51.5368258,-0.0128887
2026-06-01T10:57:13.511214,0.01,0.4,-0.99,51.5368258,-0.0128887
2026-06-01T10:57:13.602567,-0.11,0.38,-0.9,51.5368258,-0.0128887
2026-06-01T10:57:13.659603,0.53,-0.73,-0.79,51.5368258,-0.0128887
2026-06-01T10:57:13.722788,-0.18,0.35,-0.82,51.5368258,-0.0128887
2026-06-01T10:57:13.779987,0.03,0.34,-0.88,51.5368258,-0.0128887
2026-06-01T10:57:13.838419,-0.01,0.19,-0.99,51.5368258,-0.0128887
2026-06-01T10:57:13.929314,0.03,0.33,-0.98,51.5368258,-0.0128887
2026-06-01T10:57:13.991717,0,0.34,-1.1,51.5368258,-0.0128887
2026-06-01T10:57:14.048166,0.04,0.31,-1.04,51.5368258,-0.0128887
2026-06-01T10:57:14.110952,-0.06,0.26,-0.83,51.5368258,-0.0128887
2026-06-01T10:57:14.170833,0.04,0.43,-0.98,51.5368258,-0.0128887
2026-06-01T10:57:14.258404,0.06,0.17,-1.08,51.5368258,-0.0128887
2026-06-01T10:57:14.317844,-0.01,0.16,-1.04,51.5368258,-0.0128887
2026-06-01T10:57:14.379376,-0.07,0.4,-0.93,51.536798,-0.0128608
2026-06-01T10:57:14.441422,0.08,0.35,-0.84,51.536798,-0.0128608
2026-06-01T10:57:14.501856,-0.02,0.42,-1,51.536798,-0.0128608
2026-06-01T10:57:14.591605,0.09,0.13,-1.07,51.536798,-0.0128608
2026-06-01T10:57:14.651559,-0.1,0.47,-1.05,51.536798,-0.0128608
2026-06-01T10:57:14.712312,0.03,0.16,-0.92,51.536798,-0.0128608
2026-06-01T10:57:14.774173,0.03,0.33,-0.89,51.536798,-0.0128608
2026-06-01T10:57:14.831177,0.09,0.17,-1.09,51.536798,-0.0128608
2026-06-01T10:57:14.924552,-0.03,0.36,-1.02,51.536798,-0.0128608
2026-06-01T10:57:14.977965,0.06,0.32,-0.98,51.536798,-0.0128608
2026-06-01T10:57:15.038834,0.05,0.21,-0.99,51.536798,-0.0128608
2026-06-01T10:57:15.100997,0.04,0.29,-0.96,51.536798,-0.0128608
2026-06-01T10:57:15.160915,0.01,0.26,-1.13,51.536798,-0.0128608
2026-06-01T10:57:15.250617,-0.04,0.39,-0.82,51.536798,-0.0128608
2026-06-01T10:57:15.309180,0.07,0.27,-0.94,51.536798,-0.0128608
2026-06-01T10:57:15.371164,-0.06,0.21,-0.95,51.5367694,-0.0128305
2026-06-01T10:57:15.460525,0.05,0.32,-1.03,51.5367694,-0.0128305
2026-06-01T10:57:15.519564,0.02,0.32,-0.98,51.5367694,-0.0128305
2026-06-01T10:57:15.582859,0.04,0.36,-1.07,51.5367694,-0.0128305
2026-06-01T10:57:15.641725,0,0.35,-0.85,51.5367694,-0.0128305
2026-06-01T10:57:15.699234,0,0.28,-0.98,51.5367694,-0.0128305
2026-06-01T10:57:15.789221,0.01,0.23,-0.99,51.5367694,-0.0128305
2026-06-01T10:57:15.852249,0.07,0.31,-1.07,51.5367694,-0.0128305
2026-06-01T10:57:15.909347,-0.01,0.3,-1,51.5367694,-0.0128305
2026-06-01T10:57:15.970730,0.03,0.3,-0.85,51.5367694,-0.0128305
2026-06-01T10:57:16.030232,-0.05,0.19,-0.93,51.5367694,-0.0128305
2026-06-01T10:57:16.122718,-0.03,0.23,-1.19,51.5367694,-0.0128305
2026-06-01T10:57:16.178863,-0.08,0.3,-0.87,51.5367694,-0.0128305
2026-06-01T10:57:16.238064,0.06,0.3,-1.02,51.5367694,-0.0128305
2026-06-01T10:57:16.299690,0.07,0.26,-0.94,51.5367694,-0.0128305
2026-06-01T10:57:16.359216,-0.02,0.22,-1,51.5367429,-0.0127935
2026-06-01T10:57:16.456021,0.02,0.24,-1.13,51.5367429,-0.0127935
2026-06-01T10:57:16.509802,-0.06,0.33,-0.96,51.5367429,-0.0127935
2026-06-01T10:57:16.569845,0.05,0.32,-0.93,51.5367429,-0.0127935
2026-06-01T10:57:16.630961,0.15,0.32,-0.96,51.5367429,-0.0127935
2026-06-01T10:57:16.692403,-0.01,0.34,-0.99,51.5367429,-0.0127935
2026-06-01T10:57:16.780194,-0.08,0.33,-1.01,51.5367429,-0.0127935
2026-06-01T10:57:16.839970,-0.01,0.26,-0.99,51.5367429,-0.0127935
2026-06-01T10:57:16.903460,-0.04,0.26,-0.91,51.5367429,-0.0127935
2026-06-01T10:57:16.961275,0,0.38,-0.89,51.5367429,-0.0127935
2026-06-01T10:57:17.022987,0.14,0.21,-0.98,51.5367429,-0.0127935
2026-06-01T10:57:17.112062,0,0.24,-1.05,51.5367429,-0.0127935
2026-06-01T10:57:17.171609,0.03,0.42,-1.02,51.5367429,-0.0127935
2026-06-01T10:57:17.230491,0.03,0.28,-0.98,51.5367429,-0.0127935
2026-06-01T10:57:17.291080,-0.11,0.33,-0.92,51.5367429,-0.0127935
2026-06-01T10:57:17.377593,0.2,0.36,-0.95,51.5367181,-0.0127564
2026-06-01T10:57:17.440805,0.02,0.22,-1.05,51.5367181,-0.0127564
2026-06-01T10:57:17.499378,0.07,0.24,-0.99,51.5367181,-0.0127564
2026-06-01T10:57:17.561772,0.02,0.26,-0.98,51.5367181,-0.0127564
2026-06-01T10:57:17.619566,-0.04,0.51,-0.84,51.5367181,-0.0127564
2026-06-01T10:57:17.713602,-0.09,0.06,-0.69,51.5367181,-0.0127564
2026-06-01T10:57:17.770597,-0.27,0.38,-1.91,51.5367181,-0.0127564
2026-06-01T10:57:17.831578,-0.14,0.08,-0.7,51.5367181,-0.0127564
2026-06-01T10:57:17.889116,0.06,0.34,-0.87,51.5367181,-0.0127564
2026-06-01T10:57:17.951837,-0.04,0.24,-0.72,51.5367181,-0.0127564
2026-06-01T10:57:18.042131,0.21,-0.02,-0.91,51.5367181,-0.0127564
2026-06-01T10:57:18.103050,0.03,0.6,-1.41,51.5367181,-0.0127564
2026-06-01T10:57:18.163048,-0.31,0.3,-1.34,51.5367181,-0.0127564
2026-06-01T10:57:18.221075,-0.06,0.27,-0.88,51.5367181,-0.0127564
2026-06-01T10:57:18.280631,-0.02,0.28,-0.83,51.5367181,-0.0127564
2026-06-01T10:57:18.369005,-0.11,0.35,-0.63,51.5366936,-0.0127175
2026-06-01T10:57:18.433326,0.02,0.39,-1.44,51.5366936,-0.0127175
2026-06-01T10:57:18.490151,-0.05,0.44,-1.3,51.5366936,-0.0127175
2026-06-01T10:57:18.550354,0.01,0.4,-0.81,51.5366936,-0.0127175
2026-06-01T10:57:18.612726,-0.07,0.26,-0.78,51.5366936,-0.0127175
2026-06-01T10:57:18.701132,0.14,0.19,-1,51.5366936,-0.0127175
2026-06-01T10:57:18.762600,0.03,0.48,-1.04,51.5366936,-0.0127175
2026-06-01T10:57:18.820336,-0.14,0.2,-0.99,51.5366936,-0.0127175
2026-06-01T10:57:18.882096,0.03,0.36,-0.91,51.5366936,-0.0127175
2026-06-01T10:57:18.940574,0.05,0.37,-0.94,51.5366936,-0.0127175
2026-06-01T10:57:19.033886,-0.05,0.28,-0.91,51.5366936,-0.0127175
2026-06-01T10:57:19.091978,0.11,0.37,-1.11,51.5366936,-0.0127175
2026-06-01T10:57:19.149621,0,0.29,-1.13,51.5366936,-0.0127175
2026-06-01T10:57:19.212022,-0.07,0.2,-0.91,51.5366936,-0.0127175
2026-06-01T10:57:19.268624,-0.01,0.2,-0.93,51.5366936,-0.0127175
2026-06-01T10:57:19.358619,0.03,0.34,-0.91,51.5366705,-0.012685
2026-06-01T10:57:19.420268,-0.08,0.26,-1.11,51.5366705,-0.012685
2026-06-01T10:57:19.481895,0.03,0.22,-0.91,51.5366705,-0.012685
2026-06-01T10:57:19.537770,0.14,0.21,-0.93,51.5366705,-0.012685
2026-06-01T10:57:19.632259,0.14,0.06,-1.2,51.5366705,-0.012685
2026-06-01T10:57:19.688666,-0.09,0.34,-0.74,51.5366705,-0.012685
2026-06-01T10:57:19.747871,-0.08,0.45,-0.91,51.5366705,-0.012685
2026-06-01T10:57:19.810326,-0.02,0.27,-0.79,51.5366705,-0.012685
2026-06-01T10:57:19.869969,0.1,0.17,-0.82,51.5366705,-0.012685
2026-06-01T10:57:19.959299,0.02,0.2,-1.08,51.5366705,-0.012685
2026-06-01T10:57:20.018758,0.02,0.57,-1.46,51.5366705,-0.012685
2026-06-01T10:57:20.080354,-0.45,0.74,-1.09,51.5366705,-0.012685
2026-06-01T10:57:20.138723,0.05,0.31,-1.02,51.5366705,-0.012685
2026-06-01T10:57:20.200606,0.28,0.12,-0.89,51.5366705,-0.012685
2026-06-01T10:57:20.290237,0.03,0.11,-0.94,51.5366705,-0.012685
2026-06-01T10:57:20.349551,-0.09,0.32,-1.17,51.5366435,-0.0126579
2026-06-01T10:57:20.406848,-0.03,0.35,-0.98,51.5366435,-0.0126579
2026-06-01T10:57:20.468478,-0.08,0.28,-0.83,51.5366435,-0.0126579
2026-06-01T10:57:20.528339,-0.11,0.37,-0.76,51.5366435,-0.0126579
2026-06-01T10:57:20.620604,0.06,0.22,-1.21,51.5366435,-0.0126579
2026-06-01T10:57:20.681430,0.04,0.26,-0.92,51.5366435,-0.0126579
2026-06-01T10:57:20.742343,-0.04,0.37,-0.93,51.5366435,-0.0126579
2026-06-01T10:57:20.800658,-0.03,0.32,-0.96,51.5366435,-0.0126579
2026-06-01T10:57:20.860755,-0.03,0.2,-0.9,51.5366435,-0.0126579
2026-06-01T10:57:20.951997,0.07,0.23,-0.98,51.5366435,-0.0126579
2026-06-01T10:57:21.010209,0.08,0.24,-0.98,51.5366435,-0.0126579
2026-06-01T10:57:21.068520,-0.05,0.38,-1.14,51.5366435,-0.0126579
2026-06-01T10:57:21.132455,0.05,0.42,-0.92,51.5366435,-0.0126579
2026-06-01T10:57:21.220189,0.08,0.22,-0.95,51.5366435,-0.0126579
2026-06-01T10:57:21.281566,0.05,0.44,-1.05,51.5366435,-0.0126579
2026-06-01T10:57:21.338343,0.09,0.25,-1.08,51.5366435,-0.0126579
2026-06-01T10:57:21.401325,-0.02,0.21,-0.94,51.5366153,-0.0126347
2026-06-01T10:57:21.490358,-0.01,0.27,-0.86,51.5366153,-0.0126347
2026-06-01T10:57:21.550294,-0.02,0.24,-0.91,51.5366153,-0.0126347
2026-06-01T10:57:21.609120,0.06,0.23,-1.07,51.5366153,-0.0126347
2026-06-01T10:57:21.671156,0.05,0.36,-1.05,51.5366153,-0.0126347
2026-06-01T10:57:21.731811,-0.07,0.36,-0.96,51.5366153,-0.0126347
2026-06-01T10:57:21.822639,-0.02,0.26,-0.91,51.5366153,-0.0126347
2026-06-01T10:57:21.881874,0.1,0.28,-0.96,51.5366153,-0.0126347
2026-06-01T10:57:21.940577,0,0.32,-1,51.5366153,-0.0126347
2026-06-01T10:57:22.002404,0.01,0.35,-0.91,51.5366153,-0.0126347
2026-06-01T10:57:22.059426,-0.16,0.23,-0.92,51.5366153,-0.0126347
2026-06-01T10:57:22.150248,0.07,0.36,-0.9,51.5366153,-0.0126347
2026-06-01T10:57:22.210016,0,0.29,-0.96,51.5366153,-0.0126347
2026-06-01T10:57:22.270987,0.06,0.33,-1.01,51.5366153,-0.0126347
2026-06-01T10:57:22.335178,0,0.32,-0.94,51.5365886,-0.0126124
2026-06-01T10:57:22.389052,-0.03,0.36,-0.85,51.5365886,-0.0126124
2026-06-01T10:57:22.481357,-0.02,0.34,-0.97,51.5365886,-0.0126124
2026-06-01T10:57:22.539046,-0.03,0.18,-0.98,51.5365886,-0.0126124
2026-06-01T10:57:22.600693,0.04,0.28,-1.07,51.5365886,-0.0126124
2026-06-01T10:57:22.667396,0.02,0.17,-0.98,51.5365886,-0.0126124
2026-06-01T10:57:22.724153,-0.06,0.3,-0.93,51.5365886,-0.0126124
2026-06-01T10:57:22.812680,0.09,0.29,-1,51.5365886,-0.0126124
2026-06-01T10:57:22.871269,0.01,0.4,-0.88,51.5365886,-0.0126124
2026-06-01T10:57:22.932370,0.01,0.25,-0.88,51.5365886,-0.0126124
2026-06-01T10:57:22.991833,-0.01,0.29,-1.14,51.5365886,-0.0126124
2026-06-01T10:57:23.048437,-0.12,0.38,-0.84,51.5365886,-0.0126124
2026-06-01T10:57:23.138269,0.04,0.27,-1.05,51.5365886,-0.0126124
2026-06-01T10:57:23.201376,-0.08,0.31,-0.99,51.5365886,-0.0126124
2026-06-01T10:57:23.263159,0.09,0.23,-0.97,51.5365886,-0.0126124
2026-06-01T10:57:23.318214,0.03,0.21,-0.87,51.5365886,-0.0126124
2026-06-01T10:57:23.379109,-0.02,0.36,-1.04,51.5365612,-0.0125897
2026-06-01T10:57:23.471628,0.01,0.38,-1.04,51.5365612,-0.0125897
2026-06-01T10:57:23.530981,0.08,0.41,-0.87,51.5365612,-0.0125897
2026-06-01T10:57:23.591435,0.02,0.19,-1.08,51.5365612,-0.0125897
2026-06-01T10:57:23.680655,-0.05,0.35,-1.19,51.5365612,-0.0125897
2026-06-01T10:57:23.739547,0.03,0.32,-0.93,51.5365612,-0.0125897
2026-06-01T10:57:23.802293,0.03,0.34,-1.02,51.5365612,-0.0125897
2026-06-01T10:57:23.859183,0,0.36,-0.86,51.5365612,-0.0125897
2026-06-01T10:57:23.921826,0.1,0.28,-0.97,51.5365612,-0.0125897
2026-06-01T10:57:24.009627,-0.02,0.18,-1.18,51.5365612,-0.0125897
2026-06-01T10:57:24.069030,0.05,0.46,-1.06,51.5365612,-0.0125897
2026-06-01T10:57:24.131591,0.04,0.23,-0.92,51.5365612,-0.0125897
2026-06-01T10:57:24.190762,0,0.3,-0.84,51.5365612,-0.0125897
2026-06-01T10:57:24.251310,-0.09,0.37,-0.89,51.5365612,-0.0125897
2026-06-01T10:57:24.338917,0.12,0.23,-1.1,51.5365349,-0.0125633
2026-06-01T10:57:24.401846,-0.01,0.19,-1.04,51.5365349,-0.0125633
2026-06-01T10:57:24.461011,0,0.42,-0.93,51.5365349,-0.0125633
2026-06-01T10:57:24.520760,0.03,0.36,-0.88,51.5365349,-0.0125633
2026-06-01T10:57:24.585911,-0.03,0.38,-1,51.5365349,-0.0125633
2026-06-01T10:57:24.673082,0.08,0.36,-0.93,51.5365349,-0.0125633
2026-06-01T10:57:24.729593,0.03,0.33,-1.01,51.5365349,-0.0125633
2026-06-01T10:57:24.790857,-0.06,0.36,-1.09,51.5365349,-0.0125633
2026-06-01T10:57:24.850291,0.03,0.23,-1.12,51.5365349,-0.0125633
2026-06-01T10:57:24.912166,-0.07,0.33,-0.97,51.5365349,-0.0125633
2026-06-01T10:57:25.001325,0.02,0.32,-0.97,51.5365349,-0.0125633
2026-06-01T10:57:25.058019,0,0.4,-0.89,51.5365349,-0.0125633
2026-06-01T10:57:25.152087,0.08,0.27,-1.01,51.5365349,-0.0125633
2026-06-01T10:57:25.181679,0.01,0.33,-0.95,51.5365349,-0.0125633
2026-06-01T10:57:25.241471,-0.02,0.29,-1,51.5365349,-0.0125633
2026-06-01T10:57:25.328556,-0.06,0.31,-0.86,51.5365349,-0.0125633
2026-06-01T10:57:25.390369,-0.01,0.16,-0.93,51.5365129,-0.012529
2026-06-01T10:57:25.451018,0.04,0.32,-0.93,51.5365129,-0.012529
2026-06-01T10:57:25.515119,-0.02,0.39,-0.92,51.5365129,-0.012529
2026-06-01T10:57:25.602546,-0.02,0.34,-0.85,51.5365129,-0.012529
2026-06-01T10:57:25.661491,0.11,0.28,-1.13,51.5365129,-0.012529
2026-06-01T10:57:25.722403,0.09,0.26,-0.97,51.5365129,-0.012529
2026-06-01T10:57:25.783581,-0.08,0.43,-0.95,51.5365129,-0.012529
2026-06-01T10:57:25.871962,0,0.27,-1.02,51.5365129,-0.012529
2026-06-01T10:57:25.928329,0.02,0.36,-0.96,51.5365129,-0.012529
2026-06-01T10:57:25.990738,0.03,0.26,-0.91,51.5365129,-0.012529
2026-06-01T10:57:26.051005,0.03,0.21,-1.15,51.5365129,-0.012529
2026-06-01T10:57:26.111218,-0.05,0.42,-0.96,51.5365129,-0.012529
2026-06-01T10:57:26.201816,0.08,0.3,-0.93,51.5365129,-0.012529
2026-06-01T10:57:26.264111,-0.01,0.24,-0.84,51.5365129,-0.012529
2026-06-01T10:57:26.317688,-0.04,0.45,-1.03,51.5365129,-0.012529
2026-06-01T10:57:26.381573,0.03,0.26,-1.08,51.53649,-0.0124933
2026-06-01T10:57:26.439008,-0.1,0.28,-0.94,51.53649,-0.0124933
2026-06-01T10:57:26.533646,0,0.28,-0.98,51.53649,-0.0124933
2026-06-01T10:57:26.590222,0.09,0.38,-0.86,51.53649,-0.0124933
2026-06-01T10:57:26.682522,0.09,0.36,-1.04,51.53649,-0.0124933
2026-06-01T10:57:26.740828,0.02,0.37,-0.96,51.53649,-0.0124933
2026-06-01T10:57:26.768896,0.1,0.25,-1,51.53649,-0.0124933
2026-06-01T10:57:26.862544,-0.06,0.41,-0.83,51.53649,-0.0124933
2026-06-01T10:57:26.923087,-0.05,0.33,-0.95,51.53649,-0.0124933
2026-06-01T10:57:26.980345,-0.03,0.38,-1.08,51.53649,-0.0124933
2026-06-01T10:57:27.042045,-0.06,0.3,-0.91,51.53649,-0.0124933
2026-06-01T10:57:27.101534,-0.02,0.26,-0.95,51.53649,-0.0124933
2026-06-01T10:57:27.192126,-0.02,0.29,-1.01,51.53649,-0.0124933
2026-06-01T10:57:27.249803,-0.01,0.3,-0.96,51.53649,-0.0124933
2026-06-01T10:57:27.316049,0.02,0.33,-0.97,51.53649,-0.0124933
2026-06-01T10:57:27.367531,-0.03,0.32,-0.97,51.5364673,-0.0124548
2026-06-01T10:57:27.429692,-0.12,0.3,-0.97,51.5364673,-0.0124548
2026-06-01T10:57:27.523188,0,0.31,-1.07,51.5364673,-0.0124548
2026-06-01T10:57:27.580513,0.06,0.26,-0.89,51.5364673,-0.0124548
2026-06-01T10:57:27.641071,-0.06,0.35,-1.05,51.5364673,-0.0124548
2026-06-01T10:57:27.703908,0.02,0.27,-0.96,51.5364673,-0.0124548
2026-06-01T10:57:27.791224,0.11,0.29,-1.03,51.5364673,-0.0124548
2026-06-01T10:57:27.850097,0.01,0.33,-1.07,51.5364673,-0.0124548
2026-06-01T10:57:27.911419,0.03,0.32,-0.92,51.5364673,-0.0124548
2026-06-01T10:57:27.971508,0.14,0.22,-0.96,51.5364673,-0.0124548
2026-06-01T10:57:28.031580,-0.08,0.42,-1.01,51.5364673,-0.0124548
2026-06-01T10:57:28.118605,-0.01,0.25,-0.92,51.5364673,-0.0124548
2026-06-01T10:57:28.182410,0.03,0.39,-0.98,51.5364673,-0.0124548
2026-06-01T10:57:28.240864,-0.03,0.28,-0.95,51.5364673,-0.0124548
2026-06-01T10:57:28.304389,-0.05,0.28,-1.02,51.5364673,-0.0124548
2026-06-01T10:57:28.357483,-0.02,0.25,-0.92,51.5364454,-0.0124179
2026-06-01T10:57:28.451197,0.09,0.33,-1.01,51.5364454,-0.0124179
2026-06-01T10:57:28.510786,0.09,0.32,-1.01,51.5364454,-0.0124179
2026-06-01T10:57:28.571476,-0.05,0.22,-0.96,51.5364454,-0.0124179
2026-06-01T10:57:28.634379,-0.01,0.28,-1.03,51.5364454,-0.0124179
2026-06-01T10:57:28.691128,-0.02,0.16,-0.95,51.5364454,-0.0124179
2026-06-01T10:57:28.779223,0,0.32,-0.99,51.5364454,-0.0124179
2026-06-01T10:57:28.843168,0.03,0.34,-0.97,51.5364454,-0.0124179
2026-06-01T10:57:28.900873,0.04,0.32,-0.97,51.5364454,-0.0124179
2026-06-01T10:57:28.962829,0.12,0.24,-1.01,51.5364454,-0.0124179
2026-06-01T10:57:29.020811,0.01,0.26,-0.89,51.5364454,-0.0124179
2026-06-01T10:57:29.111202,0.03,0.22,-1.02,51.5364454,-0.0124179
2026-06-01T10:57:29.169302,-0.08,0.35,-1.04,51.5364454,-0.0124179
2026-06-01T10:57:29.230664,-0.04,0.28,-0.9,51.5364454,-0.0124179
2026-06-01T10:57:29.292452,0.05,0.28,-0.93,51.5364454,-0.0124179
2026-06-01T10:57:29.347279,0.13,0.32,-0.91,51.5364218,-0.0123899
2026-06-01T10:57:29.442426,-0.08,0.25,-1.03,51.5364218,-0.0123899
2026-06-01T10:57:29.501701,0,0.35,-1.01,51.5364218,-0.0123899
2026-06-01T10:57:29.562589,-0.01,0.23,-1.05,51.5364218,-0.0123899
2026-06-01T10:57:29.622004,0.07,0.34,-0.89,51.5364218,-0.0123899
2026-06-01T10:57:29.710873,0.41,0.03,-1.3,51.5364218,-0.0123899
2026-06-01T10:57:29.772406,-0.06,0.32,-1.23,51.5364218,-0.0123899
2026-06-01T10:57:29.828551,-0.06,0.36,-0.89,51.5364218,-0.0123899
2026-06-01T10:57:29.892745,-0.03,0.25,-1.04,51.5364218,-0.0123899
2026-06-01T10:57:29.981796,0.06,0.35,-0.86,51.5364218,-0.0123899
2026-06-01T10:57:30.042830,0.09,0.35,-0.96,51.5364218,-0.0123899
2026-06-01T10:57:30.098757,-0.02,0.43,-0.85,51.5364218,-0.0123899
2026-06-01T10:57:30.161344,-0.01,0.28,-1.11,51.5364218,-0.0123899
2026-06-01T10:57:30.222124,0.07,0.26,-0.94,51.5364218,-0.0123899
2026-06-01T10:57:30.310014,0.08,0.16,-0.95,51.5364218,-0.0123899
2026-06-01T10:57:30.369420,-0.15,0.27,-0.97,51.5363963,-0.012372
2026-06-01T10:57:30.429625,0.19,0.28,-1.14,51.5363963,-0.012372
2026-06-01T10:57:30.490169,-0.05,0.43,-0.9,51.5363963,-0.012372
2026-06-01T10:57:30.549781,-0.05,0.35,-0.76,51.5363963,-0.012372
2026-06-01T10:57:30.640508,0.16,0.2,-1.19,51.5363963,-0.012372
2026-06-01T10:57:30.698991,0.03,0.52,-0.72,51.5363963,-0.012372
2026-06-01T10:57:30.760883,-0.06,0.38,-0.92,51.5363963,-0.012372
2026-06-01T10:57:30.819979,0.09,0.13,-1.19,51.5363963,-0.012372
2026-06-01T10:57:30.881959,0.26,0.12,-1.1,51.5363963,-0.012372
2026-06-01T10:57:30.971781,0.22,0.16,-0.86,51.5363963,-0.012372
2026-06-01T10:57:31.030988,-0.06,0.44,-0.81,51.5363963,-0.012372
2026-06-01T10:57:31.090925,0.09,0.31,-0.94,51.5363963,-0.012372
2026-06-01T10:57:31.148848,0.01,0.2,-0.94,51.5363963,-0.012372
2026-06-01T10:57:31.211285,0.03,0.22,-1.12,51.5363963,-0.012372
2026-06-01T10:57:31.300794,0.03,0.27,-1.05,51.5363963,-0.012372
2026-06-01T10:57:31.357883,0.01,0.27,-0.89,51.5363692,-0.0123581
2026-06-01T10:57:31.422704,0,0.32,-0.86,51.5363692,-0.0123581
2026-06-01T10:57:31.480482,0.06,0.24,-0.98,51.5363692,-0.0123581
2026-06-01T10:57:31.541054,0.06,0.29,-1.04,51.5363692,-0.0123581
2026-06-01T10:57:31.632493,0.06,0.28,-0.95,51.5363692,-0.0123581
2026-06-01T10:57:31.692163,-0.04,0.33,-0.93,51.5363692,-0.0123581
2026-06-01T10:57:31.751771,0.08,0.2,-0.91,51.5363692,-0.0123581
2026-06-01T10:57:31.810231,0.02,0.2,-1.01,51.5363692,-0.0123581
2026-06-01T10:57:31.903363,0.1,0.23,-1.01,51.5363692,-0.0123581
2026-06-01T10:57:31.961404,0.14,0.28,-0.89,51.5363692,-0.0123581
2026-06-01T10:57:32.022622,0.07,0.22,-0.96,51.5363692,-0.0123581
2026-06-01T10:57:32.080247,0.01,0.19,-0.93,51.5363692,-0.0123581
2026-06-01T10:57:32.140921,0.17,0.19,-1.09,51.5363692,-0.0123581
2026-06-01T10:57:32.232048,0.08,0.21,-0.95,51.5363692,-0.0123581
2026-06-01T10:57:32.288254,0.01,0.24,-0.99,51.5363692,-0.0123581
2026-06-01T10:57:32.347915,0.03,0.29,-0.96,51.5363458,-0.0123465
2026-06-01T10:57:32.410189,0.05,0.21,-0.98,51.5363458,-0.0123465
2026-06-01T10:57:32.473348,0.12,0.15,-0.99,51.5363458,-0.0123465
2026-06-01T10:57:32.562101,0.07,0.27,-1,51.5363458,-0.0123465
2026-06-01T10:57:32.620318,0.1,0.13,-1.05,51.5363458,-0.0123465
2026-06-01T10:57:32.681909,-0.05,0.11,-1.01,51.5363458,-0.0123465
2026-06-01T10:57:32.740409,0.13,0.29,-1.02,51.5363458,-0.0123465
2026-06-01T10:57:32.801365,0.02,0.34,-1.03,51.5363458,-0.0123465
2026-06-01T10:57:32.894531,0.17,0.29,-1.07,51.5363458,-0.0123465
2026-06-01T10:57:32.948557,0.03,0.12,-1.08,51.5363458,-0.0123465
2026-06-01T10:57:33.012010,0.11,0.19,-0.99,51.5363458,-0.0123465
2026-06-01T10:57:33.069032,-0.05,0.18,-1.09,51.5363458,-0.0123465
2026-06-01T10:57:33.130783,-0.04,0.15,-1.02,51.5363458,-0.0123465
2026-06-01T10:57:33.221648,0.05,-0.01,-1.09,51.5363458,-0.0123465
2026-06-01T10:57:33.284358,0.09,0.01,-0.94,51.5363458,-0.0123465
2026-06-01T10:57:33.342201,0.03,0.01,-0.98,51.5363458,-0.0123465
2026-06-01T10:57:33.402615,-0.05,0.03,-1.03,51.5363334,-0.0123366
2026-06-01T10:57:33.461814,-0.05,0.22,-0.98,51.5363334,-0.0123366
2026-06-01T10:57:33.550260,-0.03,0.29,-1.04,51.5363334,-0.0123366
2026-06-01T10:57:33.612774,-0.02,0.09,-1.12,51.5363334,-0.0123366
2026-06-01T10:57:33.672082,-0.04,0.16,-0.96,51.5363334,-0.0123366
2026-06-01T10:57:33.735464,-0.1,0.29,-1.03,51.5363334,-0.0123366
2026-06-01T10:57:33.823158,-0.03,0.3,-0.92,51.5363334,-0.0123366
2026-06-01T10:57:33.879168,-0.11,0.28,-0.97,51.5363334,-0.0123366
2026-06-01T10:57:33.941969,-0.09,0.23,-0.98,51.5363334,-0.0123366
2026-06-01T10:57:34.001911,-0.12,0.21,-1.04,51.5363334,-0.0123366
2026-06-01T10:57:34.058694,-0.06,0.21,-0.99,51.5363334,-0.0123366
2026-06-01T10:57:34.152486,-0.09,0.22,-0.96,51.5363334,-0.0123366
2026-06-01T10:57:34.211989,-0.11,0.3,-0.97,51.5363334,-0.0123366
2026-06-01T10:57:34.271882,-0.08,0.32,-0.97,51.5363334,-0.0123366
2026-06-01T10:57:34.327919,-0.07,0.28,-0.97,51.5363354,-0.012341
2026-06-01T10:57:34.392469,-0.1,0.26,-0.98,51.5363354,-0.012341
2026-06-01T10:57:34.481083,-0.04,0.28,-0.94,51.5363354,-0.012341
2026-06-01T10:57:34.569193,-0.03,0.29,-0.99,51.5363354,-0.012341
2026-06-01T10:57:34.599109,-0.04,0.26,-0.99,51.5363354,-0.012341
2026-06-01T10:57:34.661600,-0.1,0.25,-0.96,51.5363354,-0.012341
2026-06-01T10:57:34.721422,-0.15,0.23,-0.98,51.5363354,-0.012341
2026-06-01T10:57:34.811414,-0.08,0.26,-0.97,51.5363354,-0.012341
2026-06-01T10:57:34.872350,-0.06,0.27,-0.96,51.5363354,-0.012341
2026-06-01T10:57:34.931202,-0.05,0.26,-0.98,51.5363354,-0.012341
2026-06-01T10:57:34.991318,-0.1,0.21,-0.99,51.5363354,-0.012341
2026-06-01T10:57:35.048389,-0.14,0.24,-0.99,51.5363354,-0.012341
2026-06-01T10:57:35.137629,-0.11,0.28,-0.98,51.5363354,-0.012341
2026-06-01T10:57:35.200193,-0.12,0.25,-0.97,51.5363354,-0.012341
2026-06-01T10:57:35.262593,-0.13,0.27,-0.94,51.5363354,-0.012341
2026-06-01T10:57:35.317338,-0.11,0.34,-0.95,51.5363354,-0.012341
2026-06-01T10:57:35.380514,-0.1,0.32,-0.98,51.5363363,-0.0123424
2026-06-01T10:57:35.471469,-0.08,0.27,-0.99,51.5363363,-0.0123424
2026-06-01T10:57:35.536085,-0.09,0.22,-0.98,51.5363363,-0.0123424
2026-06-01T10:57:35.591052,-0.11,0.26,-0.96,51.5363363,-0.0123424
2026-06-01T10:57:35.653119,-0.11,0.26,-0.98,51.5363363,-0.0123424
2026-06-01T10:57:35.710433,-0.11,0.23,-1,51.5363363,-0.0123424
2026-06-01T10:57:35.802132,-0.14,0.2,-0.98,51.5363363,-0.0123424
2026-06-01T10:57:35.858931,-0.16,0.21,-0.98,51.5363363,-0.0123424
2026-06-01T10:57:35.918537,-0.13,0.22,-0.97,51.5363363,-0.0123424
2026-06-01T10:57:36.009236,-0.11,0.23,-0.97,51.5363363,-0.0123424
2026-06-01T10:57:36.066879,-0.07,0.27,-0.97,51.5363363,-0.0123424
2026-06-01T10:57:36.128721,-0.08,0.27,-0.97,51.5363363,-0.0123424
2026-06-01T10:57:36.187998,-0.12,0.26,-0.98,51.5363363,-0.0123424
2026-06-01T10:57:36.247914,-0.1,0.28,-0.97,51.5363363,-0.0123424
2026-06-01T10:57:36.337362,-0.1,0.25,-0.97,51.5363365,-0.0123406
2026-06-01T10:57:36.398655,-0.1,0.25,-0.97,51.5363365,-0.0123406
2026-06-01T10:57:36.457971,-0.11,0.27,-0.97,51.5363365,-0.0123406
2026-06-01T10:57:36.518170,-0.11,0.27,-0.98,51.5363365,-0.0123406
2026-06-01T10:57:36.579138,-0.09,0.27,-0.98,51.5363365,-0.0123406
2026-06-01T10:57:36.671583,-0.09,0.28,-0.97,51.5363365,-0.0123406
2026-06-01T10:57:36.731863,-0.1,0.26,-0.97,51.5363365,-0.0123406
2026-06-01T10:57:36.791348,-0.11,0.28,-0.98,51.5363365,-0.0123406
2026-06-01T10:57:36.851097,-0.07,0.28,-0.98,51.5363365,-0.0123406
2026-06-01T10:57:36.912141,-0.1,0.23,-0.99,51.5363365,-0.0123406
2026-06-01T10:57:37.002466,-0.09,0.24,-0.98,51.5363365,-0.0123406
2026-06-01T10:57:37.058631,-0.07,0.25,-0.97,51.5363365,-0.0123406
2026-06-01T10:57:37.122804,-0.09,0.26,-0.97,51.5363365,-0.0123406
2026-06-01T10:57:37.183164,-0.1,0.3,-1,51.5363365,-0.0123406
2026-06-01T10:57:37.241664,-0.1,0.27,-0.97,51.5363365,-0.0123406
2026-06-01T10:57:37.329962,-0.12,0.24,-0.97,51.5363365,-0.0123406
2026-06-01T10:57:37.389614,-0.11,0.25,-0.98,51.5363362,-0.0123341
2026-06-01T10:57:37.452149,-0.11,0.24,-0.99,51.5363362,-0.0123341
2026-06-01T10:57:37.511590,-0.08,0.22,-0.98,51.5363362,-0.0123341
2026-06-01T10:57:37.570812,-0.12,0.22,-0.98,51.5363362,-0.0123341
2026-06-01T10:57:37.661837,-0.1,0.26,-0.97,51.5363362,-0.0123341
2026-06-01T10:57:37.722101,-0.08,0.28,-0.96,51.5363362,-0.0123341
2026-06-01T10:57:37.781134,-0.12,0.3,-0.96,51.5363362,-0.0123341
2026-06-01T10:57:37.839821,-0.09,0.3,-0.97,51.5363362,-0.0123341
2026-06-01T10:57:37.930762,-0.09,0.28,-0.98,51.5363362,-0.0123341
2026-06-01T10:57:37.989422,-0.09,0.26,-0.97,51.5363362,-0.0123341
2026-06-01T10:57:38.049652,-0.08,0.29,-0.96,51.5363362,-0.0123341
2026-06-01T10:57:38.109009,-0.08,0.28,-0.98,51.5363362,-0.0123341
