Timestamp,Acc_X,Acc_Y,Acc_Z,Latitude,Longitude
2026-06-18T10:21:05.597203,+0.20,-0.08,-0.98,51.5383098,-0.0117046
2026-06-18T10:21:05.721554,+0.21,-0.10,-0.98,51.5383098,-0.0117046
2026-06-18T10:21:05.722202,+0.21,-0.10,-0.98,51.5383098,-0.0117046
2026-06-18T10:21:05.777816,+0.21,-0.09,-0.98,51.5383098,-0.0117046
2026-06-18T10:21:05.869714,+0.20,-0.10,-0.98,51.5382956,-0.0117064
2026-06-18T10:21:05.926607,+0.20,-0.11,-0.98,51.5382956,-0.0117064
2026-06-18T10:21:06.025147,+0.21,-0.10,-0.98,51.5382956,-0.0117064
2026-06-18T10:21:06.046313,+0.20,-0.10,-0.98,51.5382956,-0.0117064
2026-06-18T10:21:06.106558,+0.21,-0.10,-0.98,51.5382956,-0.0117064
2026-06-18T10:21:06.169594,+0.22,-0.10,-0.98,51.5382956,-0.0117064
2026-06-18T10:21:06.289525,+0.23,-0.09,-0.98,51.5382956,-0.0117064
2026-06-18T10:21:06.319820,+0.21,-0.10,-0.98,51.5382956,-0.0117064
2026-06-18T10:21:06.410348,+0.21,-0.09,-0.98,51.5382956,-0.0117064
2026-06-18T10:21:06.437442,+0.21,-0.08,-0.98,51.5382956,-0.0117064
2026-06-18T10:21:06.528424,+0.19,-0.10,-0.98,51.5382956,-0.0117064
2026-06-18T10:21:06.589288,+0.24,-0.08,-0.98,51.5382956,-0.0117064
2026-06-18T10:21:06.649201,+0.13,-0.06,-1.00,51.5382956,-0.0117064
2026-06-18T10:21:06.708094,+0.31,+0.04,-0.92,51.5382956,-0.0117064
2026-06-18T10:21:06.767732,+0.26,-0.17,-0.97,51.5382956,-0.0117064
2026-06-18T10:21:06.857663,+0.13,-0.09,-0.98,51.5382885,-0.011699
2026-06-18T10:21:06.917197,+0.09,-0.05,-0.94,51.5382885,-0.011699
2026-06-18T10:21:06.976798,+0.17,-0.22,-0.98,51.5382885,-0.011699
2026-06-18T10:21:07.046834,+0.31,-0.16,-1.00,51.5382885,-0.011699
2026-06-18T10:21:07.126902,+0.25,-0.09,-0.95,51.5382885,-0.011699
2026-06-18T10:21:07.188521,+0.22,-0.05,-0.99,51.5382885,-0.011699
2026-06-18T10:21:07.251469,+0.14,-0.15,-0.99,51.5382885,-0.011699
2026-06-18T10:21:07.307225,+0.19,-0.11,-0.99,51.5382885,-0.011699
2026-06-18T10:21:07.375576,+0.10,-0.07,-0.99,51.5382885,-0.011699
2026-06-18T10:21:07.457995,+0.12,-0.10,-1.00,51.5382885,-0.011699
2026-06-18T10:21:07.516047,+0.21,-0.13,-0.98,51.5382885,-0.011699
2026-06-18T10:21:07.577996,+0.11,-0.15,-0.99,51.5382885,-0.011699
2026-06-18T10:21:07.637643,+0.13,-0.14,-0.98,51.5382885,-0.011699
2026-06-18T10:21:07.696992,+0.13,-0.12,-0.98,51.5382885,-0.011699
2026-06-18T10:21:07.785538,+0.10,-0.11,-0.99,51.5382885,-0.011699
2026-06-18T10:21:07.846766,+0.09,-0.12,-0.99,51.5382829,-0.0116964
2026-06-18T10:21:07.908142,+0.12,-0.14,-0.99,51.5382829,-0.0116964
2026-06-18T10:21:07.969368,+0.15,-0.10,-1.05,51.5382829,-0.0116964
2026-06-18T10:21:08.028309,+0.10,-0.17,-0.98,51.5382829,-0.0116964
2026-06-18T10:21:08.118299,+0.12,-0.15,-0.97,51.5382829,-0.0116964
2026-06-18T10:21:08.177738,+0.01,-0.23,-0.99,51.5382829,-0.0116964
2026-06-18T10:21:08.236663,+0.12,-0.16,-0.99,51.5382829,-0.0116964
2026-06-18T10:21:08.297019,+0.20,-0.15,-0.97,51.5382829,-0.0116964
2026-06-18T10:21:08.357879,+0.31,-0.16,-0.90,51.5382829,-0.0116964
2026-06-18T10:21:08.448066,+0.30,-0.11,-0.99,51.5382829,-0.0116964
2026-06-18T10:21:08.509528,+0.34,-0.20,-0.96,51.5382829,-0.0116964
2026-06-18T10:21:08.567563,+0.43,-0.10,-0.90,51.5382829,-0.0116964
2026-06-18T10:21:08.628927,+0.40,-0.12,-0.98,51.5382829,-0.0116964
2026-06-18T10:21:08.717154,+0.30,-0.13,-0.98,51.5382829,-0.0116964
2026-06-18T10:21:08.777648,+0.25,-0.10,-0.97,51.5382829,-0.0116964
2026-06-18T10:21:08.838235,+0.29,-0.11,-0.96,51.5382785,-0.0116974
2026-06-18T10:21:08.895804,+0.28,-0.12,-0.99,51.5382785,-0.0116974
2026-06-18T10:21:08.955623,+0.33,-0.14,-0.92,51.5382785,-0.0116974
2026-06-18T10:21:09.055291,+0.43,-0.19,-0.92,51.5382785,-0.0116974
2026-06-18T10:21:09.106911,+0.31,-0.16,-0.84,51.5382785,-0.0116974
2026-06-18T10:21:09.166963,+0.07,-0.18,-0.91,51.5382785,-0.0116974
2026-06-18T10:21:09.226614,+0.17,-0.21,-0.90,51.5382785,-0.0116974
2026-06-18T10:21:09.287901,+0.81,-0.11,-0.87,51.5382785,-0.0116974
2026-06-18T10:21:09.375191,+0.56,-0.28,-0.83,51.5382785,-0.0116974
2026-06-18T10:21:09.495340,+0.07,-0.55,-0.82,51.5382785,-0.0116974
2026-06-18T10:21:09.495635,+0.19,-0.03,-1.01,51.5382785,-0.0116974
2026-06-18T10:21:09.555952,+0.10,+0.03,-1.04,51.5382785,-0.0116974
2026-06-18T10:21:09.620491,+0.21,-0.02,-1.00,51.5382785,-0.0116974
2026-06-18T10:21:09.707390,+0.26,-0.16,-1.00,51.5382785,-0.0116974
2026-06-18T10:21:09.796060,+0.12,-0.19,-1.01,51.5382873,-0.0116983
2026-06-18T10:21:09.827990,+0.05,-0.24,-0.98,51.5382873,-0.0116983
2026-06-18T10:21:09.889243,+0.36,-0.21,-0.87,51.5382873,-0.0116983
2026-06-18T10:21:09.946483,+0.16,-0.09,-1.04,51.5382873,-0.0116983
2026-06-18T10:21:10.036844,+0.08,+0.04,-1.00,51.5382873,-0.0116983
2026-06-18T10:21:10.096339,+0.06,-0.30,-1.02,51.5382873,-0.0116983
2026-06-18T10:21:10.157678,+0.36,-0.23,-1.03,51.5382873,-0.0116983
2026-06-18T10:21:10.218116,+0.02,-0.12,-0.97,51.5382873,-0.0116983
2026-06-18T10:21:10.278889,+0.12,-0.12,-0.99,51.5382873,-0.0116983
2026-06-18T10:21:10.396865,+0.26,-0.29,-0.74,51.5382873,-0.0116983
2026-06-18T10:21:10.457552,+0.20,-0.38,-1.01,51.5382873,-0.0116983
2026-06-18T10:21:10.487231,+0.21,-0.32,-1.03,51.5382873,-0.0116983
2026-06-18T10:21:10.546039,+0.20,-0.16,-0.89,51.5382873,-0.0116983
2026-06-18T10:21:10.605463,+0.14,-0.16,-0.87,51.5382873,-0.0116983
2026-06-18T10:21:10.696064,+0.18,-0.18,-1.06,51.5382873,-0.0116983
2026-06-18T10:21:10.756944,+0.09,-0.15,-1.07,51.5382873,-0.0116983
2026-06-18T10:21:10.845786,+0.21,-0.19,-1.08,51.5382999,-0.011697
2026-06-18T10:21:10.908472,+0.22,-0.18,-0.93,51.5382999,-0.011697
2026-06-18T10:21:10.998105,+0.10,-0.15,-0.77,51.5382999,-0.011697
2026-06-18T10:21:11.058109,+0.25,-0.44,-0.81,51.5382999,-0.011697
2026-06-18T10:21:11.088537,+0.17,-0.16,-0.94,51.5382999,-0.011697
2026-06-18T10:21:11.147511,+0.18,-0.14,-0.91,51.5382999,-0.011697
2026-06-18T10:21:11.208639,+0.20,-0.12,-1.02,51.5382999,-0.011697
2026-06-18T10:21:11.298217,+0.16,-0.08,-0.96,51.5382999,-0.011697
2026-06-18T10:21:11.356533,+0.20,-0.23,-0.89,51.5382999,-0.011697
2026-06-18T10:21:11.416392,+0.01,+0.01,-0.91,51.5382999,-0.011697
2026-06-18T10:21:11.477235,+0.17,-0.35,-1.18,51.5382999,-0.011697
2026-06-18T10:21:11.536409,+0.16,-0.27,-1.05,51.5382999,-0.011697
2026-06-18T10:21:11.629786,+0.19,-0.29,-0.88,51.5382999,-0.011697
2026-06-18T10:21:11.687854,+0.09,-0.20,-1.00,51.5382999,-0.011697
2026-06-18T10:21:11.750149,+0.13,-0.21,-0.94,51.5382999,-0.011697
2026-06-18T10:21:11.809264,+0.06,-0.22,-0.98,51.5383125,-0.0116988
2026-06-18T10:21:11.867364,+0.10,-0.19,-1.04,51.5383125,-0.0116988
2026-06-18T10:21:11.959792,+0.12,-0.23,-1.05,51.5383125,-0.0116988
2026-06-18T10:21:12.018398,+0.18,-0.22,-1.03,51.5383125,-0.0116988
2026-06-18T10:21:12.078398,+0.23,-0.16,-0.95,51.5383125,-0.0116988
2026-06-18T10:21:12.137534,+0.08,-0.06,-0.94,51.5383125,-0.0116988
2026-06-18T10:21:12.197219,+0.18,-0.18,-0.93,51.5383125,-0.0116988
2026-06-18T10:21:12.287325,+0.17,-0.21,-0.95,51.5383125,-0.0116988
2026-06-18T10:21:12.381999,+0.06,-0.14,-0.99,51.5383125,-0.0116988
2026-06-18T10:21:12.407540,+0.09,-0.13,-1.00,51.5383125,-0.0116988
2026-06-18T10:21:12.467164,+0.23,-0.30,-0.96,51.5383125,-0.0116988
2026-06-18T10:21:12.587729,+0.16,-0.16,-0.97,51.5383125,-0.0116988
2026-06-18T10:21:12.618045,+0.03,-0.04,-1.39,51.5383125,-0.0116988
2026-06-18T10:21:12.679005,+0.13,-0.20,-0.90,51.5383125,-0.0116988
2026-06-18T10:21:12.766593,+0.10,-0.28,-1.04,51.5383125,-0.0116988
2026-06-18T10:21:12.801905,+0.23,-0.28,-0.63,51.5383342,-0.0117081
2026-06-18T10:21:12.890325,+0.01,-0.04,-1.07,51.5383342,-0.0117081
2026-06-18T10:21:12.946433,+0.26,-0.06,-1.41,51.5383342,-0.0117081
2026-06-18T10:21:13.007069,+0.02,-0.03,-0.71,51.5383342,-0.0117081
2026-06-18T10:21:13.098906,+0.39,-0.26,-0.55,51.5383342,-0.0117081
2026-06-18T10:21:13.156150,+0.11,+0.04,-1.27,51.5383342,-0.0117081
2026-06-18T10:21:13.217128,+0.43,-0.43,-1.48,51.5383342,-0.0117081
2026-06-18T10:21:13.276264,+0.21,-0.35,-0.78,51.5383342,-0.0117081
2026-06-18T10:21:13.337252,+0.29,-0.19,-1.04,51.5383342,-0.0117081
2026-06-18T10:21:13.397936,+0.16,-0.08,-0.99,51.5383342,-0.0117081
2026-06-18T10:21:13.491764,+0.20,-0.22,-0.90,51.5383342,-0.0117081
2026-06-18T10:21:13.545516,+0.12,-0.11,-1.06,51.5383342,-0.0117081
2026-06-18T10:21:13.608528,+0.18,-0.15,-1.00,51.5383342,-0.0117081
2026-06-18T10:21:13.666197,+0.18,-0.18,-1.05,51.5383342,-0.0117081
2026-06-18T10:21:13.727661,+0.05,-0.13,-1.00,51.5383342,-0.0117081
2026-06-18T10:21:13.816382,+0.15,-0.24,-0.91,51.5383531,-0.0117167
2026-06-18T10:21:13.878852,+0.28,-0.31,-0.81,51.5383531,-0.0117167
2026-06-18T10:21:13.937340,+0.17,-0.14,-0.99,51.5383531,-0.0117167
2026-06-18T10:21:13.997866,+0.10,-0.14,-1.02,51.5383531,-0.0117167
2026-06-18T10:21:14.057389,+0.20,-0.32,-0.87,51.5383531,-0.0117167
2026-06-18T10:21:14.148084,+0.17,-0.28,-0.89,51.5383531,-0.0117167
2026-06-18T10:21:14.206679,+0.06,-0.09,-1.00,51.5383531,-0.0117167
2026-06-18T10:21:14.268941,+0.11,-0.10,-1.12,51.5383531,-0.0117167
2026-06-18T10:21:14.327732,+0.14,-0.14,-1.11,51.5383531,-0.0117167
2026-06-18T10:21:14.386841,+0.16,-0.17,-0.94,51.5383531,-0.0117167
2026-06-18T10:21:14.476758,+0.16,-0.24,-0.77,51.5383531,-0.0117167
2026-06-18T10:21:14.536912,+0.21,-0.24,-1.01,51.5383531,-0.0117167
2026-06-18T10:21:14.631221,+0.12,-0.20,-0.91,51.5383531,-0.0117167
2026-06-18T10:21:14.657462,+0.22,-0.26,-0.86,51.5383531,-0.0117167
2026-06-18T10:21:14.719187,+0.17,-0.20,-0.88,51.5383531,-0.0117167
2026-06-18T10:21:14.808547,+0.07,-0.20,-0.98,51.5383719,-0.0117258
2026-06-18T10:21:14.867058,+0.06,-0.19,-1.04,51.5383719,-0.0117258
2026-06-18T10:21:14.927055,+0.09,-0.17,-0.87,51.5383719,-0.0117258
2026-06-18T10:21:14.986606,+0.10,-0.06,-1.50,51.5383719,-0.0117258
2026-06-18T10:21:15.106147,+0.15,-0.17,-0.93,51.5383719,-0.0117258
2026-06-18T10:21:15.136127,+0.25,-0.40,-0.83,51.5383719,-0.0117258
2026-06-18T10:21:15.197053,+0.17,-0.25,-0.91,51.5383719,-0.0117258
2026-06-18T10:21:15.260688,+0.18,-0.26,-0.90,51.5383719,-0.0117258
2026-06-18T10:21:15.316962,+0.13,-0.16,-1.06,51.5383719,-0.0117258
2026-06-18T10:21:15.437669,+0.16,-0.26,-1.10,51.5383719,-0.0117258
2026-06-18T10:21:15.466687,+0.15,-0.18,-1.00,51.5383719,-0.0117258
2026-06-18T10:21:15.527516,+0.23,-0.19,-0.98,51.5383719,-0.0117258
2026-06-18T10:21:15.589433,+0.13,-0.16,-0.90,51.5383719,-0.0117258
2026-06-18T10:21:15.678776,+0.22,-0.21,-0.95,51.5383719,-0.0117258
2026-06-18T10:21:15.736807,+0.09,-0.21,-0.99,51.5383719,-0.0117258
2026-06-18T10:21:15.828219,+0.16,-0.17,-0.90,51.5384038,-0.0117492
2026-06-18T10:21:15.856417,+0.14,-0.12,-0.98,51.5384038,-0.0117492
2026-06-18T10:21:15.918393,+0.09,-0.19,-1.15,51.5384038,-0.0117492
2026-06-18T10:21:15.976172,+0.10,-0.11,-1.06,51.5384038,-0.0117492
2026-06-18T10:21:16.067273,+0.11,-0.16,-0.95,51.5384038,-0.0117492
2026-06-18T10:21:16.132366,+0.13,-0.18,-1.01,51.5384038,-0.0117492
2026-06-18T10:21:16.188746,+0.19,-0.24,-0.88,51.5384038,-0.0117492
2026-06-18T10:21:16.247012,+0.09,-0.10,-1.11,51.5384038,-0.0117492
2026-06-18T10:21:16.307219,+0.15,-0.21,-0.95,51.5384038,-0.0117492
2026-06-18T10:21:16.398223,+0.17,-0.14,-0.96,51.5384038,-0.0117492
2026-06-18T10:21:16.456414,+0.04,-0.10,-0.99,51.5384038,-0.0117492
2026-06-18T10:21:16.517391,+0.10,-0.18,-1.21,51.5384038,-0.0117492
2026-06-18T10:21:16.578367,+0.09,-0.05,-1.12,51.5384038,-0.0117492
2026-06-18T10:21:16.636649,+0.16,-0.12,-1.03,51.5384038,-0.0117492
2026-06-18T10:21:16.727163,+0.20,-0.17,-0.81,51.5384038,-0.0117492
2026-06-18T10:21:16.786176,+0.22,-0.23,-0.88,51.5384038,-0.0117492
2026-06-18T10:21:16.848396,+0.18,-0.08,-1.05,51.5384326,-0.0117716
2026-06-18T10:21:16.910458,+0.12,-0.15,-1.04,51.5384326,-0.0117716
2026-06-18T10:21:16.968578,+0.08,-0.22,-0.98,51.5384326,-0.0117716
2026-06-18T10:21:17.060864,+0.14,-0.08,-0.99,51.5384326,-0.0117716
2026-06-18T10:21:17.117195,+0.10,-0.08,-0.95,51.5384326,-0.0117716
2026-06-18T10:21:17.178187,+0.11,-0.17,-1.04,51.5384326,-0.0117716
2026-06-18T10:21:17.236976,+0.17,-0.26,-1.02,51.5384326,-0.0117716
2026-06-18T10:21:17.327239,+0.19,-0.23,-0.81,51.5384326,-0.0117716
2026-06-18T10:21:17.387463,+0.10,-0.16,-0.97,51.5384326,-0.0117716
2026-06-18T10:21:17.448050,+0.08,-0.16,-1.20,51.5384326,-0.0117716
2026-06-18T10:21:17.508138,+0.17,-0.20,-0.99,51.5384326,-0.0117716
2026-06-18T10:21:17.598645,+0.18,-0.24,-0.75,51.5384326,-0.0117716
2026-06-18T10:21:17.658022,+0.09,-0.18,-0.93,51.5384326,-0.0117716
2026-06-18T10:21:17.717615,+0.05,-0.08,-1.50,51.5384326,-0.0117716
2026-06-18T10:21:17.779738,+0.16,-0.11,-1.02,51.5384326,-0.0117716
2026-06-18T10:21:17.835521,+0.17,-0.22,-0.86,51.5384615,-0.011792
2026-06-18T10:21:17.897031,+0.24,-0.23,-0.91,51.5384615,-0.011792
2026-06-18T10:21:17.987039,+0.23,-0.28,-1.00,51.5384615,-0.011792
2026-06-18T10:21:18.048535,+0.12,-0.22,-1.04,51.5384615,-0.011792
2026-06-18T10:21:18.106629,+0.13,-0.06,-0.93,51.5384615,-0.011792
2026-06-18T10:21:18.168783,+0.19,-0.10,-0.97,51.5384615,-0.011792
2026-06-18T10:21:18.228437,+0.21,-0.21,-0.86,51.5384615,-0.011792
2026-06-18T10:21:18.318559,+0.15,-0.17,-0.96,51.5384615,-0.011792
2026-06-18T10:21:18.376595,+0.12,-0.23,-1.03,51.5384615,-0.011792
2026-06-18T10:21:18.437901,+0.07,-0.15,-1.01,51.5384615,-0.011792
2026-06-18T10:21:18.497611,+0.08,-0.18,-1.24,51.5384615,-0.011792
2026-06-18T10:21:18.557193,+0.08,+0.06,-0.94,51.5384615,-0.011792
2026-06-18T10:21:18.647765,+0.13,-0.21,-1.01,51.5384615,-0.011792
2026-06-18T10:21:18.709114,+0.16,-0.20,-1.00,51.5384615,-0.011792
2026-06-18T10:21:18.772326,+0.24,-0.21,-1.00,51.5384615,-0.011792
2026-06-18T10:21:18.827177,+0.26,-0.35,-0.86,51.5384946,-0.0118144
2026-06-18T10:21:18.916828,+0.16,-0.14,-1.13,51.5384946,-0.0118144
2026-06-18T10:21:18.976795,+0.13,-0.15,-0.95,51.5384946,-0.0118144
2026-06-18T10:21:19.036752,+0.05,-0.09,-1.12,51.5384946,-0.0118144
2026-06-18T10:21:19.096173,+0.07,-0.04,-0.82,51.5384946,-0.0118144
2026-06-18T10:21:19.188559,+0.24,-0.20,-0.91,51.5384946,-0.0118144
2026-06-18T10:21:19.247576,+0.10,-0.15,-0.94,51.5384946,-0.0118144
2026-06-18T10:21:19.306336,+0.21,-0.28,-1.05,51.5384946,-0.0118144
2026-06-18T10:21:19.367778,+0.16,-0.20,-0.97,51.5384946,-0.0118144
2026-06-18T10:21:19.426426,+0.02,-0.03,-1.01,51.5384946,-0.0118144
2026-06-18T10:21:19.516342,+0.19,-0.28,-0.91,51.5384946,-0.0118144
2026-06-18T10:21:19.578044,+0.18,-0.21,-0.92,51.5384946,-0.0118144
2026-06-18T10:21:19.636288,+0.14,-0.14,-1.00,51.5384946,-0.0118144
2026-06-18T10:21:19.696220,+0.08,-0.23,-0.98,51.5384946,-0.0118144
2026-06-18T10:21:19.759068,+0.17,-0.16,-0.88,51.5384946,-0.0118144
2026-06-18T10:21:19.851655,+0.14,-0.06,-1.04,51.5385307,-0.0118364
2026-06-18T10:21:19.906515,+0.25,-0.17,-0.56,51.5385307,-0.0118364
2026-06-18T10:21:19.967505,+0.13,-0.15,-0.99,51.5385307,-0.0118364
2026-06-18T10:21:20.026532,+0.14,-0.16,-0.98,51.5385307,-0.0118364
2026-06-18T10:21:20.087713,+0.13,-0.21,-0.97,51.5385307,-0.0118364
2026-06-18T10:21:20.176950,+0.16,-0.09,-0.90,51.5385307,-0.0118364
2026-06-18T10:21:20.237889,+0.08,-0.17,-0.97,51.5385307,-0.0118364
2026-06-18T10:21:20.296660,+0.20,-0.19,-0.94,51.5385307,-0.0118364
2026-06-18T10:21:20.356699,+0.15,-0.21,-1.04,51.5385307,-0.0118364
2026-06-18T10:21:20.418564,+0.14,-0.22,-0.91,51.5385307,-0.0118364
2026-06-18T10:21:20.509219,-0.07,-0.05,-1.29,51.5385307,-0.0118364
2026-06-18T10:21:20.597461,+0.12,-0.21,-0.97,51.5385307,-0.0118364
2026-06-18T10:21:20.627771,+0.20,-0.23,-1.01,51.5385307,-0.0118364
2026-06-18T10:21:20.689270,+0.05,-0.07,-0.95,51.5385307,-0.0118364
2026-06-18T10:21:20.746584,+0.24,-0.25,-1.01,51.5385307,-0.0118364
2026-06-18T10:21:20.868234,+0.20,-0.19,-1.03,51.5385601,-0.0118526
2026-06-18T10:21:20.897916,+0.11,-0.13,-1.03,51.5385601,-0.0118526
2026-06-18T10:21:20.988459,+0.20,-0.32,-1.18,51.5385601,-0.0118526
2026-06-18T10:21:21.017220,+0.19,-0.16,-1.01,51.5385601,-0.0118526
2026-06-18T10:21:21.078590,+0.09,-0.08,-1.26,51.5385601,-0.0118526
2026-06-18T10:21:21.168063,+0.08,+0.08,-0.90,51.5385601,-0.0118526
2026-06-18T10:21:21.231200,+0.13,+0.06,-1.03,51.5385601,-0.0118526
2026-06-18T10:21:21.286563,+0.15,-0.09,-0.92,51.5385601,-0.0118526
2026-06-18T10:21:21.348301,+0.17,-0.33,-0.90,51.5385601,-0.0118526
2026-06-18T10:21:21.438198,+0.20,-0.21,-0.74,51.5385601,-0.0118526
2026-06-18T10:21:21.496873,+0.09,-0.14,-1.05,51.5385601,-0.0118526
2026-06-18T10:21:21.557552,+0.16,-0.27,-1.01,51.5385601,-0.0118526
2026-06-18T10:21:21.616975,+0.13,-0.03,-0.96,51.5385601,-0.0118526
2026-06-18T10:21:21.677654,+0.20,-0.22,-0.84,51.5385601,-0.0118526
2026-06-18T10:21:21.768423,+0.13,-0.28,-0.96,51.5385601,-0.0118526
2026-06-18T10:21:21.826317,+0.09,-0.15,-1.01,51.5385945,-0.0118728
2026-06-18T10:21:21.887750,+0.09,-0.16,-1.13,51.5385945,-0.0118728
2026-06-18T10:21:21.947641,+0.14,-0.20,-0.87,51.5385945,-0.0118728
2026-06-18T10:21:22.007683,+0.17,-0.08,-0.80,51.5385945,-0.0118728
2026-06-18T10:21:22.100439,+0.20,-0.12,-1.00,51.5385945,-0.0118728
2026-06-18T10:21:22.157265,+0.13,-0.17,-1.03,51.5385945,-0.0118728
2026-06-18T10:21:22.217085,+0.09,-0.01,-1.07,51.5385945,-0.0118728
2026-06-18T10:21:22.277927,+0.10,-0.18,-0.92,51.5385945,-0.0118728
2026-06-18T10:21:22.336916,+0.09,-0.35,-0.92,51.5385945,-0.0118728
2026-06-18T10:21:22.428480,-0.02,-0.18,-1.05,51.5385945,-0.0118728
2026-06-18T10:21:22.487315,+0.16,-0.20,-1.01,51.5385945,-0.0118728
2026-06-18T10:21:22.548348,+0.24,-0.20,-0.98,51.5385945,-0.0118728
2026-06-18T10:21:22.607652,+0.12,-0.06,-1.03,51.5385945,-0.0118728
2026-06-18T10:21:22.669007,+0.10,-0.10,-1.03,51.5385945,-0.0118728
2026-06-18T10:21:22.756833,+0.10,-0.07,-0.99,51.5385945,-0.0118728
2026-06-18T10:21:22.816098,+0.26,-0.33,-0.99,51.5386218,-0.0118945
2026-06-18T10:21:22.877845,+0.18,-0.25,-1.03,51.5386218,-0.0118945
2026-06-18T10:21:22.936978,+0.14,-0.11,-0.98,51.5386218,-0.0118945
2026-06-18T10:21:22.998263,+0.15,-0.22,-0.87,51.5386218,-0.0118945
2026-06-18T10:21:23.088202,+0.05,-0.02,-0.98,51.5386218,-0.0118945
2026-06-18T10:21:23.177287,+0.11,-0.16,-1.01,51.5386218,-0.0118945
2026-06-18T10:21:23.206428,+0.18,-0.21,-0.99,51.5386218,-0.0118945
2026-06-18T10:21:23.269899,+0.10,-0.15,-0.99,51.5386218,-0.0118945
2026-06-18T10:21:23.357338,+0.12,-0.22,-0.91,51.5386218,-0.0118945
2026-06-18T10:21:23.417470,+0.16,-0.23,-0.87,51.5386218,-0.0118945
2026-06-18T10:21:23.478044,+0.01,-0.06,-1.15,51.5386218,-0.0118945
2026-06-18T10:21:23.538173,+0.25,-0.30,-0.86,51.5386218,-0.0118945
2026-06-18T10:21:23.600458,+0.21,-0.16,-1.25,51.5386218,-0.0118945
2026-06-18T10:21:23.687289,-0.01,+0.03,-0.93,51.5386218,-0.0118945
2026-06-18T10:21:23.747330,+0.25,-0.14,-0.98,51.5386218,-0.0118945
2026-06-18T10:21:23.812221,+0.19,-0.28,-0.70,51.5386597,-0.0119234
2026-06-18T10:21:23.868218,+0.32,-0.40,-0.89,51.5386597,-0.0119234
2026-06-18T10:21:23.926158,+0.25,-0.29,-0.90,51.5386597,-0.0119234
2026-06-18T10:21:24.017633,+0.15,-0.08,-1.08,51.5386597,-0.0119234
2026-06-18T10:21:24.079602,+0.03,-0.05,-1.04,51.5386597,-0.0119234
2026-06-18T10:21:24.138025,+0.05,-0.08,-0.96,51.5386597,-0.0119234
2026-06-18T10:21:24.198540,+0.22,-0.26,-1.60,51.5386597,-0.0119234
2026-06-18T10:21:24.257647,+0.03,-0.11,-1.03,51.5386597,-0.0119234
2026-06-18T10:21:24.347023,-0.01,-0.09,-0.95,51.5386597,-0.0119234
2026-06-18T10:21:24.409454,+0.14,-0.15,-1.12,51.5386597,-0.0119234
2026-06-18T10:21:24.466406,+0.08,-0.14,-1.14,51.5386597,-0.0119234
2026-06-18T10:21:24.531251,+0.14,-0.17,-0.64,51.5386597,-0.0119234
2026-06-18T10:21:24.589740,+0.28,-0.30,-0.76,51.5386597,-0.0119234
2026-06-18T10:21:24.676982,+0.10,-0.12,-0.98,51.5386597,-0.0119234
2026-06-18T10:21:24.736854,+0.14,-0.09,-0.85,51.5386597,-0.0119234
2026-06-18T10:21:24.795727,-0.05,+0.15,-1.45,51.5386991,-0.01195
2026-06-18T10:21:24.858604,+0.20,-0.13,-0.86,51.5386991,-0.01195
2026-06-18T10:21:24.916542,+0.14,-0.17,-1.00,51.5386991,-0.01195
2026-06-18T10:21:25.006094,+0.11,-0.12,-1.02,51.5386991,-0.01195
2026-06-18T10:21:25.067526,+0.24,-0.41,-1.17,51.5386991,-0.01195
2026-06-18T10:21:25.127457,+0.20,-0.38,-0.88,51.5386991,-0.01195
2026-06-18T10:21:25.188545,+0.06,-0.12,-0.89,51.5386991,-0.01195
2026-06-18T10:21:25.276600,+0.06,-0.15,-1.09,51.5386991,-0.01195
2026-06-18T10:21:25.337655,+0.24,-0.36,-0.84,51.5386991,-0.01195
2026-06-18T10:21:25.397520,+0.22,-0.16,-0.81,51.5386991,-0.01195
2026-06-18T10:21:25.457414,+0.14,-0.22,-0.84,51.5386991,-0.01195
2026-06-18T10:21:25.546588,+0.12,-0.14,-0.85,51.5386991,-0.01195
2026-06-18T10:21:25.613060,+0.15,-0.10,-1.21,51.5386991,-0.01195
2026-06-18T10:21:25.665780,+0.09,-0.10,-0.87,51.5386991,-0.01195
2026-06-18T10:21:25.732802,+0.09,-0.11,-1.00,51.5386991,-0.01195
2026-06-18T10:21:25.787161,+0.19,-0.20,-0.89,51.5386991,-0.01195
2026-06-18T10:21:25.877877,+0.17,-0.27,-0.92,51.5387372,-0.0119745
2026-06-18T10:21:25.936624,+0.22,-0.17,-0.83,51.5387372,-0.0119745
2026-06-18T10:21:26.000178,+0.19,-0.20,-1.05,51.5387372,-0.0119745
2026-06-18T10:21:26.057772,+0.24,-0.22,-1.08,51.5387372,-0.0119745
2026-06-18T10:21:26.118065,-0.01,-0.10,-1.05,51.5387372,-0.0119745
2026-06-18T10:21:26.207263,+0.28,-0.26,-0.65,51.5387372,-0.0119745
2026-06-18T10:21:26.269293,+0.16,-0.22,-0.98,51.5387372,-0.0119745
2026-06-18T10:21:26.329417,-0.07,+0.01,-1.15,51.5387372,-0.0119745
2026-06-18T10:21:26.387791,+0.29,-0.45,-0.77,51.5387372,-0.0119745
2026-06-18T10:21:26.451561,+0.08,-0.09,-0.87,51.5387372,-0.0119745
2026-06-18T10:21:26.539646,+0.05,-0.00,-1.17,51.5387372,-0.0119745
2026-06-18T10:21:26.598151,+0.24,-0.22,-1.03,51.5387372,-0.0119745
2026-06-18T10:21:26.655966,+0.17,-0.22,-1.02,51.5387372,-0.0119745
2026-06-18T10:21:26.720180,+0.10,-0.09,-0.82,51.5387372,-0.0119745
2026-06-18T10:21:26.775558,+0.17,-0.16,-1.04,51.5387372,-0.0119745
2026-06-18T10:21:26.867771,+0.15,-0.18,-0.97,51.5387741,-0.0119974
2026-06-18T10:21:26.928262,+0.17,-0.16,-0.87,51.5387741,-0.0119974
2026-06-18T10:21:26.986607,+0.25,-0.19,-0.90,51.5387741,-0.0119974
2026-06-18T10:21:27.052165,+0.22,-0.25,-1.02,51.5387741,-0.0119974
2026-06-18T10:21:27.105193,+0.11,-0.11,-1.05,51.5387741,-0.0119974
2026-06-18T10:21:27.197896,+0.08,-0.06,-1.09,51.5387741,-0.0119974
2026-06-18T10:21:27.257693,+0.10,-0.12,-0.85,51.5387741,-0.0119974
2026-06-18T10:21:27.318827,+0.10,-0.17,-0.98,51.5387741,-0.0119974
2026-06-18T10:21:27.377804,+0.14,-0.16,-1.07,51.5387741,-0.0119974
2026-06-18T10:21:27.466717,+0.14,-0.22,-0.94,51.5387741,-0.0119974
2026-06-18T10:21:27.526338,+0.10,-0.13,-0.83,51.5387741,-0.0119974
2026-06-18T10:21:27.586777,+0.22,-0.23,-0.96,51.5387741,-0.0119974
2026-06-18T10:21:27.647617,-0.02,+0.06,-1.26,51.5387741,-0.0119974
2026-06-18T10:21:27.706515,+0.11,-0.13,-1.05,51.5387741,-0.0119974
2026-06-18T10:21:27.797692,+0.13,-0.23,-0.90,51.5387741,-0.0119974
2026-06-18T10:21:27.856337,+0.17,-0.17,-0.91,51.538811,-0.0120206
2026-06-18T10:21:27.916494,+0.19,-0.19,-1.09,51.538811,-0.0120206
2026-06-18T10:21:27.977633,+0.25,-0.21,-0.91,51.538811,-0.0120206
2026-06-18T10:21:28.037857,+0.15,-0.21,-0.96,51.538811,-0.0120206
2026-06-18T10:21:28.130640,+0.14,-0.12,-0.93,51.538811,-0.0120206
2026-06-18T10:21:28.187831,+0.17,-0.14,-0.90,51.538811,-0.0120206
2026-06-18T10:21:28.247422,+0.10,-0.07,-0.95,51.538811,-0.0120206
2026-06-18T10:21:28.308326,+0.07,-0.15,-0.88,51.538811,-0.0120206
2026-06-18T10:21:28.367711,+0.14,-0.25,-1.00,51.538811,-0.0120206
2026-06-18T10:21:28.457583,+0.08,-0.21,-1.06,51.538811,-0.0120206
2026-06-18T10:21:28.518062,+0.20,-0.23,-0.86,51.538811,-0.0120206
2026-06-18T10:21:28.579503,+0.24,-0.26,-0.77,51.538811,-0.0120206
2026-06-18T10:21:28.637340,+0.14,-0.24,-1.03,51.538811,-0.0120206
2026-06-18T10:21:28.697548,-0.01,+0.05,-0.94,51.538811,-0.0120206
2026-06-18T10:21:28.788508,+0.23,-0.17,-0.83,51.538811,-0.0120206
2026-06-18T10:21:28.848575,+0.17,-0.22,-0.79,51.5388435,-0.0120395
2026-06-18T10:21:28.910540,+0.20,-0.21,-0.93,51.5388435,-0.0120395
2026-06-18T10:21:28.968465,+0.15,-0.10,-0.95,51.5388435,-0.0120395
2026-06-18T10:21:29.031808,+0.17,-0.25,-0.86,51.5388435,-0.0120395
2026-06-18T10:21:29.117445,+0.09,-0.15,-1.11,51.5388435,-0.0120395
2026-06-18T10:21:29.178046,+0.17,-0.11,-0.96,51.5388435,-0.0120395
2026-06-18T10:21:29.236968,+0.12,-0.13,-1.05,51.5388435,-0.0120395
2026-06-18T10:21:29.296828,+0.13,-0.13,-0.97,51.5388435,-0.0120395
2026-06-18T10:21:29.387537,+0.18,-0.17,-0.98,51.5388435,-0.0120395
2026-06-18T10:21:29.447105,+0.09,-0.15,-0.97,51.5388435,-0.0120395
2026-06-18T10:21:29.510110,+0.18,-0.25,-0.95,51.5388435,-0.0120395
2026-06-18T10:21:29.567916,+0.13,-0.09,-1.03,51.5388435,-0.0120395
2026-06-18T10:21:29.627,+0.15,-0.16,-0.85,51.5388435,-0.0120395
2026-06-18T10:21:29.719131,+0.00,-0.08,-1.13,51.5388435,-0.0120395
2026-06-18T10:21:29.778597,+0.18,-0.12,-0.96,51.5388435,-0.0120395
2026-06-18T10:21:29.837355,+0.17,-0.11,-1.07,51.538876,-0.0120557
2026-06-18T10:21:29.897488,+0.32,-0.31,-0.70,51.538876,-0.0120557
2026-06-18T10:21:29.962341,+0.15,-0.07,-1.02,51.538876,-0.0120557
2026-06-18T10:21:30.048205,+0.18,-0.20,-0.97,51.538876,-0.0120557
2026-06-18T10:21:30.117471,+0.12,-0.17,-0.89,51.538876,-0.0120557
2026-06-18T10:21:30.169887,+0.22,-0.10,-0.39,51.538876,-0.0120557
2026-06-18T10:21:30.227532,+0.02,+0.11,-1.29,51.538876,-0.0120557
2026-06-18T10:21:30.289438,-0.00,-0.04,-1.07,51.538876,-0.0120557
2026-06-18T10:21:30.377525,+0.18,-0.27,-0.89,51.538876,-0.0120557
2026-06-18T10:21:30.437062,+0.17,-0.25,-0.65,51.538876,-0.0120557
2026-06-18T10:21:30.496758,+0.15,-0.27,-1.01,51.538876,-0.0120557
2026-06-18T10:21:30.556412,+0.29,-0.44,-1.23,51.538876,-0.0120557
2026-06-18T10:21:30.618313,+0.11,-0.09,-0.86,51.538876,-0.0120557
2026-06-18T10:21:30.705892,+0.08,-0.14,-0.85,51.538876,-0.0120557
2026-06-18T10:21:30.768301,+0.20,-0.25,-0.77,51.538876,-0.0120557
2026-06-18T10:21:30.826292,+0.12,-0.14,-1.17,51.538903,-0.0120702
2026-06-18T10:21:30.888405,+0.12,-0.17,-1.06,51.538903,-0.0120702
2026-06-18T10:21:30.946908,+0.14,-0.23,-0.82,51.538903,-0.0120702
2026-06-18T10:21:31.036589,+0.17,-0.08,-1.03,51.538903,-0.0120702
2026-06-18T10:21:31.097797,+0.15,-0.24,-1.10,51.538903,-0.0120702
2026-06-18T10:21:31.158319,+0.13,-0.06,-1.03,51.538903,-0.0120702
2026-06-18T10:21:31.221934,+0.13,-0.07,-0.90,51.538903,-0.0120702
2026-06-18T10:21:31.276754,+0.09,-0.13,-0.96,51.538903,-0.0120702
2026-06-18T10:21:31.370530,+0.10,-0.18,-1.01,51.538903,-0.0120702
2026-06-18T10:21:31.426753,+0.20,-0.24,-0.75,51.538903,-0.0120702
2026-06-18T10:21:31.490332,+0.20,-0.27,-1.00,51.538903,-0.0120702
2026-06-18T10:21:31.549389,+0.12,-0.07,-1.12,51.538903,-0.0120702
2026-06-18T10:21:31.637109,+0.15,-0.14,-1.02,51.538903,-0.0120702
2026-06-18T10:21:31.696790,+0.02,-0.13,-0.83,51.538903,-0.0120702
2026-06-18T10:21:31.758298,+0.16,-0.16,-1.03,51.538903,-0.0120702
2026-06-18T10:21:31.819570,+0.20,-0.21,-0.97,51.5389324,-0.0120917
2026-06-18T10:21:31.877521,+0.14,-0.19,-0.93,51.5389324,-0.0120917
2026-06-18T10:21:31.967748,+0.24,-0.27,-1.02,51.5389324,-0.0120917
2026-06-18T10:21:32.028416,+0.23,-0.13,-1.14,51.5389324,-0.0120917
2026-06-18T10:21:32.090727,+0.20,-0.18,-0.82,51.5389324,-0.0120917
2026-06-18T10:21:32.149398,+0.18,-0.14,-0.94,51.5389324,-0.0120917
2026-06-18T10:21:32.209459,+0.14,-0.08,-1.09,51.5389324,-0.0120917
2026-06-18T10:21:32.297761,+0.02,-0.16,-0.88,51.5389324,-0.0120917
2026-06-18T10:21:32.357963,+0.16,-0.32,-0.91,51.5389324,-0.0120917
2026-06-18T10:21:32.420701,+0.07,-0.07,-1.03,51.5389324,-0.0120917
2026-06-18T10:21:32.477023,+0.04,-0.10,-1.10,51.5389324,-0.0120917
2026-06-18T10:21:32.537782,+0.22,-0.29,-0.91,51.5389324,-0.0120917
2026-06-18T10:21:32.629283,+0.15,-0.19,-0.99,51.5389324,-0.0120917
2026-06-18T10:21:32.686730,+0.05,-0.09,-1.05,51.5389324,-0.0120917
2026-06-18T10:21:32.747107,+0.22,-0.29,-0.89,51.5389324,-0.0120917
2026-06-18T10:21:32.805758,+0.07,-0.18,-1.27,51.5389597,-0.0121175
2026-06-18T10:21:32.870526,+0.29,-0.20,-0.75,51.5389597,-0.0121175
2026-06-18T10:21:32.958846,+0.16,-0.14,-1.03,51.5389597,-0.0121175
2026-06-18T10:21:33.018502,+0.20,-0.25,-0.82,51.5389597,-0.0121175
2026-06-18T10:21:33.081978,+0.15,-0.23,-0.99,51.5389597,-0.0121175
2026-06-18T10:21:33.138773,+0.03,+0.03,-0.89,51.5389597,-0.0121175
2026-06-18T10:21:33.199794,+0.12,+0.03,-1.02,51.5389597,-0.0121175
2026-06-18T10:21:33.288859,+0.13,-0.17,-0.87,51.5389597,-0.0121175
2026-06-18T10:21:33.351040,+0.14,-0.20,-1.05,51.5389597,-0.0121175
2026-06-18T10:21:33.409067,+0.18,-0.27,-1.02,51.5389597,-0.0121175
2026-06-18T10:21:33.467731,+0.04,-0.10,-0.92,51.5389597,-0.0121175
2026-06-18T10:21:33.558986,+0.16,-0.15,-0.76,51.5389597,-0.0121175
2026-06-18T10:21:33.618169,+0.18,-0.27,-0.78,51.5389597,-0.0121175
2026-06-18T10:21:33.681618,+0.00,-0.04,-1.19,51.5389597,-0.0121175
2026-06-18T10:21:33.742654,+0.14,-0.08,-0.97,51.5389597,-0.0121175
2026-06-18T10:21:33.798034,+0.10,-0.21,-0.94,51.5389885,-0.0121428
2026-06-18T10:21:33.888324,+0.24,-0.26,-0.81,51.5389885,-0.0121428
2026-06-18T10:21:33.945737,+0.05,-0.04,-1.27,51.5389885,-0.0121428
2026-06-18T10:21:34.007422,+0.18,-0.22,-0.93,51.5389885,-0.0121428
2026-06-18T10:21:34.067288,+0.13,-0.22,-1.17,51.5389885,-0.0121428
2026-06-18T10:21:34.129068,+0.15,-0.07,-1.03,51.5389885,-0.0121428
2026-06-18T10:21:34.216832,+0.03,-0.05,-0.93,51.5389885,-0.0121428
2026-06-18T10:21:34.277382,+0.31,-0.39,-0.69,51.5389885,-0.0121428
2026-06-18T10:21:34.338350,+0.11,-0.09,-1.08,51.5389885,-0.0121428
2026-06-18T10:21:34.399301,+0.13,-0.23,-1.15,51.5389885,-0.0121428
2026-06-18T10:21:34.458759,+0.25,-0.34,-0.89,51.5389885,-0.0121428
2026-06-18T10:21:34.548692,+0.18,-0.18,-0.83,51.5389885,-0.0121428
2026-06-18T10:21:34.606715,+0.18,-0.10,-0.85,51.5389885,-0.0121428
2026-06-18T10:21:34.671278,+0.12,-0.14,-0.97,51.5389885,-0.0121428
2026-06-18T10:21:34.729975,+0.17,-0.16,-0.93,51.5389885,-0.0121428
2026-06-18T10:21:34.791505,+0.24,-0.31,-0.94,51.5389885,-0.0121428
2026-06-18T10:21:34.877197,+0.10,-0.09,-1.00,51.5390236,-0.0121687
2026-06-18T10:21:34.939705,+0.08,-0.11,-1.21,51.5390236,-0.0121687
2026-06-18T10:21:34.997796,+0.12,-0.15,-0.93,51.5390236,-0.0121687
2026-06-18T10:21:35.056857,+0.06,-0.08,-0.95,51.5390236,-0.0121687
2026-06-18T10:21:35.116861,+0.20,-0.20,-0.96,51.5390236,-0.0121687
2026-06-18T10:21:35.209215,+0.32,-0.28,-1.00,51.5390236,-0.0121687
2026-06-18T10:21:35.269309,+0.13,-0.10,-1.00,51.5390236,-0.0121687
2026-06-18T10:21:35.327413,+0.23,-0.28,-0.89,51.5390236,-0.0121687
2026-06-18T10:21:35.388601,+0.11,-0.11,-1.01,51.5390236,-0.0121687
2026-06-18T10:21:35.477385,-0.02,-0.07,-1.05,51.5390236,-0.0121687
2026-06-18T10:21:35.539352,+0.17,-0.22,-0.90,51.5390236,-0.0121687
2026-06-18T10:21:35.599350,+0.15,-0.16,-0.95,51.5390236,-0.0121687
2026-06-18T10:21:35.659851,+0.10,-0.20,-0.88,51.5390236,-0.0121687
2026-06-18T10:21:35.748463,+0.13,-0.13,-0.97,51.5390236,-0.0121687
2026-06-18T10:21:35.805886,+0.15,-0.19,-0.98,51.5390638,-0.0121996
2026-06-18T10:21:35.868633,+0.20,-0.15,-0.88,51.5390638,-0.0121996
2026-06-18T10:21:35.929633,+0.18,-0.19,-0.93,51.5390638,-0.0121996
2026-06-18T10:21:35.987823,+0.22,-0.23,-0.91,51.5390638,-0.0121996
2026-06-18T10:21:36.078832,+0.15,-0.06,-1.11,51.5390638,-0.0121996
2026-06-18T10:21:36.140952,+0.15,-0.12,-1.00,51.5390638,-0.0121996
2026-06-18T10:21:36.197296,+0.15,-0.09,-0.94,51.5390638,-0.0121996
2026-06-18T10:21:36.257212,+0.08,-0.14,-0.97,51.5390638,-0.0121996
2026-06-18T10:21:36.315846,+0.13,-0.26,-1.07,51.5390638,-0.0121996
2026-06-18T10:21:36.407180,+0.12,-0.16,-0.94,51.5390638,-0.0121996
2026-06-18T10:21:36.469295,+0.12,-0.11,-1.04,51.5390638,-0.0121996
2026-06-18T10:21:36.527708,+0.15,-0.17,-0.86,51.5390638,-0.0121996
2026-06-18T10:21:36.590555,+0.13,-0.15,-0.96,51.5390638,-0.0121996
2026-06-18T10:21:36.652497,+0.12,-0.13,-1.09,51.5390638,-0.0121996
2026-06-18T10:21:36.737892,+0.11,-0.13,-0.94,51.5390638,-0.0121996
2026-06-18T10:21:36.795719,+0.23,-0.25,-0.99,51.5391037,-0.0122283
2026-06-18T10:21:36.858626,+0.19,-0.22,-0.95,51.5391037,-0.0122283
2026-06-18T10:21:36.919648,+0.23,-0.19,-0.90,51.5391037,-0.0122283
2026-06-18T10:21:36.979294,+0.26,-0.27,-0.92,51.5391037,-0.0122283
2026-06-18T10:21:37.069678,+0.12,-0.18,-1.02,51.5391037,-0.0122283
2026-06-18T10:21:37.130689,+0.10,-0.07,-1.05,51.5391037,-0.0122283
2026-06-18T10:21:37.190479,+0.17,-0.21,-0.83,51.5391037,-0.0122283
2026-06-18T10:21:37.247920,+0.14,-0.16,-0.69,51.5391037,-0.0122283
2026-06-18T10:21:37.308500,+0.17,-0.20,-0.96,51.5391037,-0.0122283
2026-06-18T10:21:37.400964,+0.11,-0.26,-1.08,51.5391037,-0.0122283
2026-06-18T10:21:37.455732,+0.16,-0.25,-0.79,51.5391037,-0.0122283
2026-06-18T10:21:37.519179,+0.23,-0.19,-0.84,51.5391037,-0.0122283
2026-06-18T10:21:37.577325,+0.20,-0.22,-0.84,51.5391037,-0.0122283
2026-06-18T10:21:37.669454,+0.09,-0.04,-1.07,51.5391037,-0.0122283
2026-06-18T10:21:37.727841,+0.17,-0.16,-0.80,51.5391037,-0.0122283
2026-06-18T10:21:37.786289,+0.14,-0.14,-0.78,51.5391037,-0.0122283
2026-06-18T10:21:37.850813,+0.20,-0.19,-1.07,51.5391405,-0.0122555
2026-06-18T10:21:37.909409,+0.19,-0.10,-1.00,51.5391405,-0.0122555
2026-06-18T10:21:37.999123,+0.22,-0.21,-0.78,51.5391405,-0.0122555
2026-06-18T10:21:38.059717,+0.11,-0.06,-1.08,51.5391405,-0.0122555
2026-06-18T10:21:38.121818,+0.02,+0.10,-1.07,51.5391405,-0.0122555
2026-06-18T10:21:38.178519,+0.16,-0.20,-1.02,51.5391405,-0.0122555
2026-06-18T10:21:38.270856,+0.17,-0.23,-0.89,51.5391405,-0.0122555
2026-06-18T10:21:38.327995,+0.29,-0.32,-0.87,51.5391405,-0.0122555
2026-06-18T10:21:38.418733,+0.01,-0.04,-1.12,51.5391405,-0.0122555
2026-06-18T10:21:38.447390,+0.26,-0.31,-0.99,51.5391405,-0.0122555
2026-06-18T10:21:38.511822,+0.22,-0.21,-0.85,51.5391405,-0.0122555
2026-06-18T10:21:38.568546,+0.01,-0.01,-1.05,51.5391405,-0.0122555
2026-06-18T10:21:38.659699,+0.07,-0.17,-0.97,51.5391405,-0.0122555
2026-06-18T10:21:38.718855,-0.10,+0.15,-0.92,51.5391405,-0.0122555
2026-06-18T10:21:38.775780,+0.26,-0.25,-0.99,51.5391405,-0.0122555
2026-06-18T10:21:38.835735,+0.23,-0.28,-1.05,51.5391783,-0.0122865
2026-06-18T10:21:38.897454,+0.14,-0.09,-0.91,51.5391783,-0.0122865
2026-06-18T10:21:38.991195,+0.16,-0.21,-1.06,51.5391783,-0.0122865
2026-06-18T10:21:39.048722,+0.17,-0.16,-0.96,51.5391783,-0.0122865
2026-06-18T10:21:39.110746,+0.07,-0.18,-1.16,51.5391783,-0.0122865
2026-06-18T10:21:39.169822,+0.35,-0.25,-0.81,51.5391783,-0.0122865
2026-06-18T10:21:39.228046,+0.06,+0.01,-1.16,51.5391783,-0.0122865
2026-06-18T10:21:39.321381,+0.16,-0.31,-0.77,51.5391783,-0.0122865
2026-06-18T10:21:39.381719,+0.23,-0.17,-0.76,51.5391783,-0.0122865
2026-06-18T10:21:39.437570,+0.08,-0.11,-0.97,51.5391783,-0.0122865
2026-06-18T10:21:39.499246,+0.18,-0.19,-1.14,51.5391783,-0.0122865
2026-06-18T10:21:39.559998,+0.05,+0.03,-0.94,51.5391783,-0.0122865
2026-06-18T10:21:39.650443,+0.17,-0.20,-0.72,51.5391783,-0.0122865
2026-06-18T10:21:39.708721,+0.14,-0.12,-0.96,51.5391783,-0.0122865
2026-06-18T10:21:39.767405,+0.21,-0.19,-0.99,51.5391783,-0.0122865
2026-06-18T10:21:39.829613,+0.19,-0.23,-0.93,51.5392134,-0.0123142
2026-06-18T10:21:39.918323,+0.14,-0.13,-0.97,51.5392134,-0.0123142
2026-06-18T10:21:39.976651,+0.19,-0.19,-0.85,51.5392134,-0.0123142
2026-06-18T10:21:40.038438,+0.08,-0.04,-1.19,51.5392134,-0.0123142
2026-06-18T10:21:40.099394,+0.16,-0.17,-0.81,51.5392134,-0.0123142
2026-06-18T10:21:40.160723,+0.15,-0.04,-1.05,51.5392134,-0.0123142
2026-06-18T10:21:40.249638,+0.14,-0.17,-0.94,51.5392134,-0.0123142
2026-06-18T10:21:40.311029,+0.16,-0.22,-0.95,51.5392134,-0.0123142
2026-06-18T10:21:40.369331,+0.17,-0.25,-0.91,51.5392134,-0.0123142
2026-06-18T10:21:40.429132,+0.19,-0.34,-0.76,51.5392134,-0.0123142
2026-06-18T10:21:40.487582,+0.14,-0.22,-0.93,51.5392134,-0.0123142
2026-06-18T10:21:40.576345,+0.12,-0.11,-1.00,51.5392134,-0.0123142
2026-06-18T10:21:40.638742,+0.04,-0.11,-1.04,51.5392134,-0.0123142
2026-06-18T10:21:40.704999,+0.15,-0.15,-0.77,51.5392134,-0.0123142
2026-06-18T10:21:40.757104,+0.12,-0.06,-1.02,51.5392134,-0.0123142
2026-06-18T10:21:40.816237,+0.15,-0.19,-1.02,51.5392489,-0.0123377
2026-06-18T10:21:40.910970,+0.20,-0.20,-0.88,51.5392489,-0.0123377
2026-06-18T10:21:40.968602,+0.14,-0.13,-0.97,51.5392489,-0.0123377
2026-06-18T10:21:41.027920,+0.10,-0.12,-0.91,51.5392489,-0.0123377
2026-06-18T10:21:41.088248,+0.14,-0.18,-1.00,51.5392489,-0.0123377
2026-06-18T10:21:41.152349,+0.14,-0.10,-0.86,51.5392489,-0.0123377
2026-06-18T10:21:41.237008,+0.29,-0.32,-0.93,51.5392489,-0.0123377
2026-06-18T10:21:41.298012,+0.09,-0.17,-0.96,51.5392489,-0.0123377
2026-06-18T10:21:41.362148,+0.25,-0.26,-1.03,51.5392489,-0.0123377
2026-06-18T10:21:41.419386,+0.08,-0.14,-0.99,51.5392489,-0.0123377
2026-06-18T10:21:41.476485,+0.17,-0.20,-0.99,51.5392489,-0.0123377
2026-06-18T10:21:41.567463,+0.15,-0.12,-0.95,51.5392489,-0.0123377
2026-06-18T10:21:41.628134,+0.07,-0.12,-0.99,51.5392489,-0.0123377
2026-06-18T10:21:41.690692,+0.13,-0.19,-1.04,51.5392489,-0.0123377
2026-06-18T10:21:41.777740,+0.10,-0.01,-1.01,51.5392489,-0.0123377
2026-06-18T10:21:41.836459,+0.18,-0.23,-0.83,51.5392858,-0.0123612
2026-06-18T10:21:41.896618,+0.18,-0.20,-0.96,51.5392858,-0.0123612
2026-06-18T10:21:41.960754,+0.24,-0.18,-1.03,51.5392858,-0.0123612
2026-06-18T10:21:42.020690,+0.15,-0.24,-0.91,51.5392858,-0.0123612
2026-06-18T10:21:42.111004,+0.09,-0.15,-0.80,51.5392858,-0.0123612
2026-06-18T10:21:42.168439,+0.16,-0.06,-0.96,51.5392858,-0.0123612
2026-06-18T10:21:42.228868,+0.14,-0.11,-0.97,51.5392858,-0.0123612
2026-06-18T10:21:42.290277,+0.20,-0.32,-1.00,51.5392858,-0.0123612
2026-06-18T10:21:42.347291,+0.11,-0.16,-0.88,51.5392858,-0.0123612
2026-06-18T10:21:42.470486,+0.15,-0.18,-0.87,51.5392858,-0.0123612
2026-06-18T10:21:42.496936,+0.05,-0.09,-1.13,51.5392858,-0.0123612
2026-06-18T10:21:42.559,+0.15,-0.17,-1.14,51.5392858,-0.0123612
2026-06-18T10:21:42.617846,+0.07,-0.15,-0.90,51.5392858,-0.0123612
2026-06-18T10:21:42.682818,+0.08,-0.12,-0.94,51.5392858,-0.0123612
2026-06-18T10:21:42.771503,+0.21,-0.23,-1.05,51.5392858,-0.0123612
2026-06-18T10:21:42.828222,+0.21,-0.23,-0.86,51.5393191,-0.0123857
2026-06-18T10:21:42.889771,+0.17,-0.15,-1.08,51.5393191,-0.0123857
2026-06-18T10:21:42.949443,+0.12,-0.15,-1.04,51.5393191,-0.0123857
2026-06-18T10:21:43.010694,+0.15,-0.16,-1.03,51.5393191,-0.0123857
2026-06-18T10:21:43.102592,+0.12,+0.01,-0.79,51.5393191,-0.0123857
2026-06-18T10:21:43.156893,+0.25,-0.22,-1.00,51.5393191,-0.0123857
2026-06-18T10:21:43.218,+0.13,-0.03,-1.12,51.5393191,-0.0123857
2026-06-18T10:21:43.277888,+0.18,-0.26,-0.95,51.5393191,-0.0123857
2026-06-18T10:21:43.342568,+0.13,-0.22,-0.72,51.5393191,-0.0123857
2026-06-18T10:21:43.430835,-0.07,+0.04,-1.16,51.5393191,-0.0123857
2026-06-18T10:21:43.488521,+0.07,-0.27,-0.89,51.5393191,-0.0123857
2026-06-18T10:21:43.548590,+0.22,-0.26,-0.96,51.5393191,-0.0123857
2026-06-18T10:21:43.610499,+0.16,-0.20,-0.84,51.5393191,-0.0123857
2026-06-18T10:21:43.668636,+0.19,-0.22,-1.04,51.5393191,-0.0123857
2026-06-18T10:21:43.760343,+0.17,+0.01,-1.06,51.5393191,-0.0123857
2026-06-18T10:21:43.848866,+0.22,-0.22,-0.79,51.5393528,-0.0124132
2026-06-18T10:21:43.877576,+0.26,-0.24,-0.59,51.5393528,-0.0124132
2026-06-18T10:21:43.940248,+0.19,-0.14,-1.00,51.5393528,-0.0124132
2026-06-18T10:21:44.029225,+0.17,-0.25,-0.92,51.5393528,-0.0124132
2026-06-18T10:21:44.086457,+0.13,-0.15,-0.97,51.5393528,-0.0124132
2026-06-18T10:21:44.148773,+0.07,-0.15,-1.00,51.5393528,-0.0124132
2026-06-18T10:21:44.208178,+0.14,-0.03,-1.14,51.5393528,-0.0124132
2026-06-18T10:21:44.266779,+0.07,-0.11,-1.04,51.5393528,-0.0124132
2026-06-18T10:21:44.355801,+0.16,-0.28,-0.94,51.5393528,-0.0124132
2026-06-18T10:21:44.419680,+0.20,-0.25,-0.91,51.5393528,-0.0124132
2026-06-18T10:21:44.479690,+0.09,-0.23,-1.09,51.5393528,-0.0124132
2026-06-18T10:21:44.539985,-0.00,+0.02,-1.56,51.5393528,-0.0124132
2026-06-18T10:21:44.601200,+0.11,-0.11,-0.97,51.5393528,-0.0124132
2026-06-18T10:21:44.690378,+0.13,-0.10,-0.85,51.5393528,-0.0124132
2026-06-18T10:21:44.748133,+0.04,-0.12,-1.00,51.5393528,-0.0124132
2026-06-18T10:21:44.806265,+0.36,-0.53,-1.20,51.539388,-0.0124414
2026-06-18T10:21:44.868366,+0.20,-0.18,-1.09,51.539388,-0.0124414
2026-06-18T10:21:44.931824,+0.21,-0.19,-0.79,51.539388,-0.0124414
2026-06-18T10:21:45.018121,+0.22,-0.14,-0.85,51.539388,-0.0124414
2026-06-18T10:21:45.078016,+0.10,-0.06,-1.10,51.539388,-0.0124414
2026-06-18T10:21:45.137860,+0.14,-0.19,-1.01,51.539388,-0.0124414
2026-06-18T10:21:45.198136,+0.09,-0.08,-0.92,51.539388,-0.0124414
2026-06-18T10:21:45.259016,+0.25,-0.18,-0.87,51.539388,-0.0124414
2026-06-18T10:21:45.350835,+0.09,-0.15,-0.98,51.539388,-0.0124414
2026-06-18T10:21:45.407125,+0.16,-0.28,-1.00,51.539388,-0.0124414
2026-06-18T10:21:45.468774,+0.13,-0.21,-1.02,51.539388,-0.0124414
2026-06-18T10:21:45.530090,+0.10,-0.14,-0.90,51.539388,-0.0124414
2026-06-18T10:21:45.593003,+0.13,-0.26,-1.05,51.539388,-0.0124414
2026-06-18T10:21:45.676898,+0.09,-0.02,-1.03,51.539388,-0.0124414
2026-06-18T10:21:45.740690,+0.13,-0.12,-0.99,51.539388,-0.0124414
2026-06-18T10:21:45.795413,+0.24,-0.20,-0.97,51.5394216,-0.0124705
2026-06-18T10:21:45.858578,+0.25,-0.20,-0.93,51.5394216,-0.0124705
2026-06-18T10:21:45.951481,+0.13,-0.04,-1.08,51.5394216,-0.0124705
2026-06-18T10:21:46.008475,+0.12,-0.19,-0.91,51.5394216,-0.0124705
2026-06-18T10:21:46.067306,+0.18,-0.14,-0.89,51.5394216,-0.0124705
2026-06-18T10:21:46.133329,+0.19,-0.24,-0.93,51.5394216,-0.0124705
2026-06-18T10:21:46.189969,+0.18,-0.28,-0.97,51.5394216,-0.0124705
2026-06-18T10:21:46.277954,+0.11,+0.04,-1.27,51.5394216,-0.0124705
2026-06-18T10:21:46.339119,-0.01,-0.04,-1.14,51.5394216,-0.0124705
2026-06-18T10:21:46.406138,+0.14,-0.15,-0.94,51.5394216,-0.0124705
2026-06-18T10:21:46.458019,+0.10,-0.17,-1.19,51.5394216,-0.0124705
2026-06-18T10:21:46.517638,+0.16,-0.34,-0.98,51.5394216,-0.0124705
2026-06-18T10:21:46.636366,+0.10,-0.18,-0.88,51.5394216,-0.0124705
2026-06-18T10:21:46.665980,+0.17,-0.20,-0.92,51.5394216,-0.0124705
2026-06-18T10:21:46.729408,+0.05,-0.10,-1.13,51.5394216,-0.0124705
2026-06-18T10:21:46.788645,+0.19,-0.20,-0.79,51.5394216,-0.0124705
2026-06-18T10:21:46.853983,+0.24,-0.19,-1.10,51.5394527,-0.0124996
2026-06-18T10:21:46.939162,+0.16,-0.15,-0.97,51.5394527,-0.0124996
2026-06-18T10:21:46.997007,+0.22,-0.14,-0.84,51.5394527,-0.0124996
2026-06-18T10:21:47.057222,+0.16,-0.17,-1.11,51.5394527,-0.0124996
2026-06-18T10:21:47.119155,+0.17,-0.26,-1.01,51.5394527,-0.0124996
2026-06-18T10:21:47.179262,+0.21,-0.24,-0.96,51.5394527,-0.0124996
2026-06-18T10:21:47.267079,+0.02,-0.00,-1.02,51.5394527,-0.0124996
2026-06-18T10:21:47.326610,+0.21,-0.15,-1.02,51.5394527,-0.0124996
2026-06-18T10:21:47.387508,+0.03,-0.12,-0.81,51.5394527,-0.0124996
2026-06-18T10:21:47.448072,+0.15,-0.19,-1.16,51.5394527,-0.0124996
2026-06-18T10:21:47.507846,+0.31,-0.41,-0.84,51.5394527,-0.0124996
2026-06-18T10:21:47.600596,+0.13,-0.21,-1.08,51.5394527,-0.0124996
2026-06-18T10:21:47.655916,+0.08,-0.08,-1.00,51.5394527,-0.0124996
2026-06-18T10:21:47.718924,+0.20,-0.23,-0.90,51.5394527,-0.0124996
2026-06-18T10:21:47.775525,+0.00,-0.04,-1.01,51.5394527,-0.0124996
2026-06-18T10:21:47.870994,+0.23,-0.33,-1.10,51.5394832,-0.0125305
2026-06-18T10:21:47.927222,+0.17,-0.11,-0.73,51.5394832,-0.0125305
2026-06-18T10:21:47.990533,+0.20,-0.18,-1.25,51.5394832,-0.0125305
2026-06-18T10:21:48.048594,+0.07,-0.11,-0.94,51.5394832,-0.0125305
2026-06-18T10:21:48.110576,+0.15,-0.19,-1.09,51.5394832,-0.0125305
2026-06-18T10:21:48.195640,+0.20,-0.17,-0.70,51.5394832,-0.0125305
2026-06-18T10:21:48.258822,+0.13,-0.12,-0.97,51.5394832,-0.0125305
2026-06-18T10:21:48.318750,+0.22,-0.20,-0.70,51.5394832,-0.0125305
2026-06-18T10:21:48.379663,+0.06,-0.07,-1.12,51.5394832,-0.0125305
2026-06-18T10:21:48.438608,+0.21,-0.31,-0.77,51.5394832,-0.0125305
2026-06-18T10:21:48.532129,+0.13,-0.11,-0.91,51.5394832,-0.0125305
2026-06-18T10:21:48.587025,+0.06,-0.11,-0.94,51.5394832,-0.0125305
2026-06-18T10:21:48.647039,+0.26,-0.28,-0.75,51.5394832,-0.0125305
2026-06-18T10:21:48.712524,+0.24,-0.33,-1.03,51.5394832,-0.0125305
2026-06-18T10:21:48.768141,+0.04,-0.06,-0.97,51.5394832,-0.0125305
2026-06-18T10:21:48.856348,+0.26,-0.30,-0.99,51.5395159,-0.0125659
2026-06-18T10:21:48.919359,+0.07,-0.04,-0.85,51.5395159,-0.0125659
2026-06-18T10:21:48.978206,+0.18,-0.18,-1.06,51.5395159,-0.0125659
2026-06-18T10:21:49.038100,+0.18,-0.17,-0.79,51.5395159,-0.0125659
2026-06-18T10:21:49.097726,+0.22,-0.20,-1.10,51.5395159,-0.0125659
2026-06-18T10:21:49.192370,+0.18,-0.15,-0.79,51.5395159,-0.0125659
2026-06-18T10:21:49.249087,+0.08,-0.10,-0.98,51.5395159,-0.0125659
2026-06-18T10:21:49.306746,+0.18,-0.19,-0.89,51.5395159,-0.0125659
2026-06-18T10:21:49.369175,+0.07,-0.07,-1.18,51.5395159,-0.0125659
2026-06-18T10:21:49.430792,+0.15,-0.18,-0.87,51.5395159,-0.0125659
2026-06-18T10:21:49.547934,+0.14,-0.27,-1.00,51.5395159,-0.0125659
2026-06-18T10:21:49.576766,+0.01,-0.15,-1.08,51.5395159,-0.0125659
2026-06-18T10:21:49.637626,+0.12,-0.21,-0.93,51.5395159,-0.0125659
2026-06-18T10:21:49.697403,+0.27,-0.30,-0.94,51.5395159,-0.0125659
2026-06-18T10:21:49.755836,+0.10,-0.11,-1.03,51.5395159,-0.0125659
2026-06-18T10:21:49.849038,+0.04,+0.03,-0.96,51.5395485,-0.0125953
2026-06-18T10:21:49.907492,+0.15,-0.18,-1.05,51.5395485,-0.0125953
2026-06-18T10:21:49.972786,+0.15,-0.07,-0.97,51.5395485,-0.0125953
2026-06-18T10:21:50.029720,+0.22,-0.19,-0.94,51.5395485,-0.0125953
2026-06-18T10:21:50.117976,+0.18,-0.21,-0.95,51.5395485,-0.0125953
2026-06-18T10:21:50.176932,+0.15,-0.18,-0.99,51.5395485,-0.0125953
2026-06-18T10:21:50.238776,+0.14,-0.28,-0.86,51.5395485,-0.0125953
2026-06-18T10:21:50.298575,+0.15,-0.13,-0.82,51.5395485,-0.0125953
2026-06-18T10:21:50.362058,+0.09,-0.03,-0.98,51.5395485,-0.0125953
2026-06-18T10:21:50.447793,+0.17,-0.22,-0.92,51.5395485,-0.0125953
2026-06-18T10:21:50.506561,+0.16,-0.22,-0.93,51.5395485,-0.0125953
2026-06-18T10:21:50.568155,+0.14,-0.22,-0.95,51.5395485,-0.0125953
2026-06-18T10:21:50.629907,+0.18,-0.21,-0.84,51.5395485,-0.0125953
2026-06-18T10:21:50.691803,+0.16,-0.15,-1.18,51.5395485,-0.0125953
2026-06-18T10:21:50.778725,+0.10,-0.06,-1.09,51.5395485,-0.0125953
2026-06-18T10:21:50.840214,+0.15,-0.25,-0.94,51.5395766,-0.0126256
2026-06-18T10:21:50.899404,+0.16,-0.12,-0.88,51.5395766,-0.0126256
2026-06-18T10:21:50.962396,+0.07,-0.07,-1.11,51.5395766,-0.0126256
2026-06-18T10:21:51.019020,+0.21,-0.25,-1.15,51.5395766,-0.0126256
2026-06-18T10:21:51.108677,+0.14,-0.10,-0.82,51.5395766,-0.0126256
2026-06-18T10:21:51.168223,+0.23,-0.23,-0.83,51.5395766,-0.0126256
2026-06-18T10:21:51.231907,+0.21,-0.23,-1.00,51.5395766,-0.0126256
2026-06-18T10:21:51.289664,+0.10,-0.02,-1.15,51.5395766,-0.0126256
2026-06-18T10:21:51.351771,+0.12,-0.12,-0.86,51.5395766,-0.0126256
2026-06-18T10:21:51.438129,-0.00,-0.03,-1.15,51.5395766,-0.0126256
2026-06-18T10:21:51.499035,+0.12,-0.21,-1.05,51.5395766,-0.0126256
2026-06-18T10:21:51.558487,+0.18,-0.20,-0.95,51.5395766,-0.0126256
2026-06-18T10:21:51.617321,+0.20,-0.34,-0.82,51.5395766,-0.0126256
2026-06-18T10:21:51.709471,+0.10,-0.10,-1.08,51.5395766,-0.0126256
2026-06-18T10:21:51.779369,+0.13,-0.13,-0.94,51.5395766,-0.0126256
2026-06-18T10:21:51.827575,+0.08,-0.10,-0.81,51.5396076,-0.0126551
2026-06-18T10:21:51.889484,+0.21,-0.26,-0.74,51.5396076,-0.0126551
2026-06-18T10:21:51.978356,+0.20,-0.18,-1.03,51.5396076,-0.0126551
2026-06-18T10:21:52.038375,+0.11,-0.15,-1.27,51.5396076,-0.0126551
2026-06-18T10:21:52.100081,+0.18,-0.18,-0.78,51.5396076,-0.0126551
2026-06-18T10:21:52.157822,+0.22,-0.13,-0.83,51.5396076,-0.0126551
2026-06-18T10:21:52.220605,+0.16,-0.07,-1.02,51.5396076,-0.0126551
2026-06-18T10:21:52.307737,+0.04,+0.07,-0.95,51.5396076,-0.0126551
2026-06-18T10:21:52.371790,+0.38,-0.31,-0.72,51.5396076,-0.0126551
2026-06-18T10:21:52.431488,+0.21,-0.33,-0.94,51.5396076,-0.0126551
2026-06-18T10:21:52.487308,+0.20,-0.32,-1.38,51.5396076,-0.0126551
2026-06-18T10:21:52.550411,+0.11,-0.30,-1.14,51.5396076,-0.0126551
2026-06-18T10:21:52.637123,+0.10,-0.12,-0.53,51.5396076,-0.0126551
2026-06-18T10:21:52.699690,+0.09,-0.17,-1.03,51.5396076,-0.0126551
2026-06-18T10:21:52.787199,+0.21,-0.20,-1.04,51.5396076,-0.0126551
2026-06-18T10:21:52.817521,+0.15,-0.15,-0.99,51.539639,-0.0126873
2026-06-18T10:21:52.879634,+0.24,-0.18,-0.67,51.539639,-0.0126873
2026-06-18T10:21:52.970493,+0.12,-0.10,-0.99,51.539639,-0.0126873
2026-06-18T10:21:53.030016,+0.21,-0.19,-0.92,51.539639,-0.0126873
2026-06-18T10:21:53.089148,+0.20,-0.23,-0.82,51.539639,-0.0126873
2026-06-18T10:21:53.151021,+0.20,-0.15,-0.86,51.539639,-0.0126873
2026-06-18T10:21:53.208944,+0.16,-0.22,-0.92,51.539639,-0.0126873
2026-06-18T10:21:53.297173,+0.20,-0.19,-0.99,51.539639,-0.0126873
2026-06-18T10:21:53.357141,+0.23,-0.22,-0.87,51.539639,-0.0126873
2026-06-18T10:21:53.420259,+0.06,-0.12,-0.85,51.539639,-0.0126873
2026-06-18T10:21:53.478971,+0.13,-0.27,-0.99,51.539639,-0.0126873
2026-06-18T10:21:53.539605,+0.11,-0.17,-0.93,51.539639,-0.0126873
2026-06-18T10:21:53.628491,+0.25,-0.38,-1.23,51.539639,-0.0126873
2026-06-18T10:21:53.687758,+0.21,-0.46,-1.22,51.539639,-0.0126873
2026-06-18T10:21:53.752003,+0.09,+0.01,-1.02,51.539639,-0.0126873
2026-06-18T10:21:53.806375,+0.10,-0.24,-1.03,51.5396691,-0.0127206
2026-06-18T10:21:53.868847,-0.03,+0.07,-1.46,51.5396691,-0.0127206
2026-06-18T10:21:53.991661,+0.07,-0.11,-1.08,51.5396691,-0.0127206
2026-06-18T10:21:54.017549,+0.22,-0.23,-1.00,51.5396691,-0.0127206
2026-06-18T10:21:54.078867,+0.12,-0.12,-1.13,51.5396691,-0.0127206
2026-06-18T10:21:54.139858,+0.10,-0.03,-0.78,51.5396691,-0.0127206
2026-06-18T10:21:54.233101,+0.21,-0.27,-0.87,51.5396691,-0.0127206
2026-06-18T10:21:54.292378,+0.14,-0.04,-1.27,51.5396691,-0.0127206
2026-06-18T10:21:54.378995,+0.13,-0.02,-0.85,51.5396691,-0.0127206
2026-06-18T10:21:54.411412,+0.25,-0.25,-0.73,51.5396691,-0.0127206
2026-06-18T10:21:54.466814,+0.19,-0.23,-0.99,51.5396691,-0.0127206
2026-06-18T10:21:54.560484,+0.04,-0.14,-1.13,51.5396691,-0.0127206
2026-06-18T10:21:54.624161,+0.17,-0.21,-1.01,51.5396691,-0.0127206
2026-06-18T10:21:54.678025,+0.22,-0.21,-1.06,51.5396691,-0.0127206
2026-06-18T10:21:54.738303,+0.13,-0.05,-1.01,51.5396691,-0.0127206
2026-06-18T10:21:54.796302,+0.04,-0.04,-1.21,51.5397027,-0.0127545
2026-06-18T10:21:54.888476,+0.14,-0.10,-1.07,51.5397027,-0.0127545
2026-06-18T10:21:54.951311,+0.20,-0.33,-0.94,51.5397027,-0.0127545
2026-06-18T10:21:55.009284,+0.22,-0.15,-0.90,51.5397027,-0.0127545
2026-06-18T10:21:55.072691,+0.24,-0.20,-0.97,51.5397027,-0.0127545
2026-06-18T10:21:55.130797,+0.14,-0.18,-1.16,51.5397027,-0.0127545
2026-06-18T10:21:55.218599,+0.13,-0.13,-0.69,51.5397027,-0.0127545
2026-06-18T10:21:55.277794,+0.22,-0.21,-0.94,51.5397027,-0.0127545
2026-06-18T10:21:55.337495,+0.07,-0.03,-1.34,51.5397027,-0.0127545
2026-06-18T10:21:55.397011,+0.07,-0.38,-1.03,51.5397027,-0.0127545
2026-06-18T10:21:55.456979,+0.19,-0.20,-0.86,51.5397027,-0.0127545
2026-06-18T10:21:55.548252,+0.11,-0.20,-1.04,51.5397027,-0.0127545
2026-06-18T10:21:55.607730,-0.00,-0.01,-1.21,51.5397027,-0.0127545
2026-06-18T10:21:55.667488,+0.21,-0.24,-1.16,51.5397027,-0.0127545
2026-06-18T10:21:55.729204,+0.16,-0.21,-0.95,51.5397027,-0.0127545
2026-06-18T10:21:55.786200,+0.16,-0.10,-0.98,51.5397027,-0.0127545
2026-06-18T10:21:55.878866,+0.07,+0.02,-1.22,51.539738,-0.0127837
2026-06-18T10:21:55.940628,+0.27,-0.29,-0.76,51.539738,-0.0127837
2026-06-18T10:21:55.997374,+0.17,-0.05,-1.10,51.539738,-0.0127837
2026-06-18T10:21:56.057201,+0.16,-0.16,-0.96,51.539738,-0.0127837
2026-06-18T10:21:56.149426,+0.22,-0.24,-1.20,51.539738,-0.0127837
2026-06-18T10:21:56.207160,+0.04,-0.01,-0.88,51.539738,-0.0127837
2026-06-18T10:21:56.268079,+0.17,-0.16,-1.22,51.539738,-0.0127837
2026-06-18T10:21:56.329823,+0.08,-0.09,-1.09,51.539738,-0.0127837
2026-06-18T10:21:56.390606,+0.13,-0.26,-1.07,51.539738,-0.0127837
2026-06-18T10:21:56.479575,+0.16,-0.21,-1.05,51.539738,-0.0127837
2026-06-18T10:21:56.536093,+0.11,-0.18,-0.94,51.539738,-0.0127837
2026-06-18T10:21:56.605150,+0.28,-0.33,-1.26,51.539738,-0.0127837
2026-06-18T10:21:56.659394,+0.15,-0.06,-0.91,51.539738,-0.0127837
2026-06-18T10:21:56.718786,+0.07,-0.08,-0.93,51.539738,-0.0127837
2026-06-18T10:21:56.809581,+0.14,-0.13,-0.93,51.5397733,-0.0128107
2026-06-18T10:21:56.865593,+0.03,+0.03,-1.11,51.5397733,-0.0128107
2026-06-18T10:21:56.928995,+0.23,-0.25,-0.95,51.5397733,-0.0128107
2026-06-18T10:21:56.986833,+0.31,-0.35,-0.64,51.5397733,-0.0128107
2026-06-18T10:21:57.053837,+0.18,-0.13,-1.02,51.5397733,-0.0128107
2026-06-18T10:21:57.137698,+0.24,-0.39,-0.79,51.5397733,-0.0128107
2026-06-18T10:21:57.198244,+0.18,-0.23,-1.06,51.5397733,-0.0128107
2026-06-18T10:21:57.265194,+0.09,-0.05,-0.82,51.5397733,-0.0128107
2026-06-18T10:21:57.318916,+0.25,-0.25,-0.59,51.5397733,-0.0128107
2026-06-18T10:21:57.381118,+0.01,-0.03,-0.74,51.5397733,-0.0128107
2026-06-18T10:21:57.467489,+0.29,-0.38,-0.78,51.5397733,-0.0128107
2026-06-18T10:21:57.529066,+0.01,-0.02,-1.13,51.5397733,-0.0128107
2026-06-18T10:21:57.589746,+0.19,-0.26,-1.24,51.5397733,-0.0128107
2026-06-18T10:21:57.651352,+0.20,-0.22,-1.05,51.5397733,-0.0128107
2026-06-18T10:21:57.706630,+0.10,-0.15,-0.71,51.5397733,-0.0128107
2026-06-18T10:21:57.799378,+0.13,-0.10,-1.06,51.5398016,-0.012841
2026-06-18T10:21:57.857949,+0.10,-0.18,-1.03,51.5398016,-0.012841
2026-06-18T10:21:57.920406,+0.17,-0.03,-1.08,51.5398016,-0.012841
2026-06-18T10:21:57.978935,+0.19,-0.17,-0.87,51.5398016,-0.012841
2026-06-18T10:21:58.071453,+0.25,-0.28,-0.71,51.5398016,-0.012841
2026-06-18T10:21:58.128393,+0.15,-0.23,-1.06,51.5398016,-0.012841
2026-06-18T10:21:58.193276,+0.06,+0.03,-1.36,51.5398016,-0.012841
2026-06-18T10:21:58.277167,+0.03,-0.05,-1.04,51.5398016,-0.012841
2026-06-18T10:21:58.338450,+0.18,-0.22,-0.83,51.5398016,-0.012841
2026-06-18T10:21:58.398539,+0.17,-0.20,-0.89,51.5398016,-0.012841
2026-06-18T10:21:58.458607,+0.01,-0.02,-1.34,51.5398016,-0.012841
2026-06-18T10:21:58.520465,+0.12,-0.17,-1.03,51.5398016,-0.012841
2026-06-18T10:21:58.580266,+0.22,-0.28,-0.93,51.5398016,-0.012841
2026-06-18T10:21:58.672255,+0.13,-0.08,-0.68,51.5398016,-0.012841
2026-06-18T10:21:58.730841,+0.10,-0.08,-1.22,51.5398016,-0.012841
2026-06-18T10:21:58.786855,+0.11,-0.17,-1.07,51.5398376,-0.0128744
2026-06-18T10:21:58.848977,+0.20,-0.17,-0.90,51.5398376,-0.0128744
2026-06-18T10:21:58.909182,+0.31,-0.32,-0.92,51.5398376,-0.0128744
2026-06-18T10:21:58.999773,+0.06,+0.08,-1.10,51.5398376,-0.0128744
2026-06-18T10:21:59.060581,+0.13,-0.15,-1.19,51.5398376,-0.0128744
2026-06-18T10:21:59.120535,+0.08,-0.12,-1.18,51.5398376,-0.0128744
2026-06-18T10:21:59.181402,+0.01,+0.03,-1.16,51.5398376,-0.0128744
2026-06-18T10:21:59.240839,+0.21,-0.31,-1.01,51.5398376,-0.0128744
2026-06-18T10:21:59.330192,+0.14,-0.24,-0.88,51.5398376,-0.0128744
2026-06-18T10:21:59.389744,+0.13,-0.16,-0.95,51.5398376,-0.0128744
2026-06-18T10:21:59.451485,+0.24,-0.22,-0.66,51.5398376,-0.0128744
2026-06-18T10:21:59.508624,+0.29,-0.25,-0.81,51.5398376,-0.0128744
2026-06-18T10:21:59.566967,+0.12,-0.12,-0.98,51.5398376,-0.0128744
2026-06-18T10:21:59.661605,+0.12,-0.11,-0.67,51.5398376,-0.0128744
2026-06-18T10:21:59.720188,+0.26,-0.21,-0.60,51.5398376,-0.0128744
2026-06-18T10:21:59.777666,+0.24,-0.03,-0.71,51.5398376,-0.0128744
2026-06-18T10:21:59.838434,+0.20,-0.22,-1.10,51.5398712,-0.0129132
2026-06-18T10:21:59.900436,-0.03,+0.07,-1.70,51.5398712,-0.0129132
2026-06-18T10:21:59.991313,+0.12,-0.19,-0.86,51.5398712,-0.0129132
2026-06-18T10:22:00.048542,+0.25,-0.40,-1.08,51.5398712,-0.0129132
2026-06-18T10:22:00.116765,-0.16,+0.21,-1.47,51.5398712,-0.0129132
2026-06-18T10:22:00.170427,-0.09,+0.04,-0.98,51.5398712,-0.0129132
2026-06-18T10:22:00.259133,+0.10,-0.02,-0.56,51.5398712,-0.0129132
2026-06-18T10:22:00.352922,+0.05,-0.01,-1.01,51.5398712,-0.0129132
2026-06-18T10:22:00.411717,-0.02,-0.08,-1.12,51.5398712,-0.0129132
2026-06-18T10:22:00.436806,+0.27,-0.40,-0.95,51.5398712,-0.0129132
2026-06-18T10:22:00.499721,+0.26,-0.38,-1.00,51.5398712,-0.0129132
2026-06-18T10:22:00.587129,+0.08,-0.25,-1.16,51.5398712,-0.0129132
2026-06-18T10:22:00.680997,+0.06,+0.02,-1.22,51.5398712,-0.0129132
2026-06-18T10:22:00.706371,+0.20,-0.26,-0.92,51.5398712,-0.0129132
2026-06-18T10:22:00.801453,+0.25,-0.22,-0.96,51.5399032,-0.0129495
2026-06-18T10:22:00.826181,+0.17,-0.05,-1.14,51.5399032,-0.0129495
2026-06-18T10:22:00.921,+0.11,-0.17,-1.08,51.5399032,-0.0129495
2026-06-18T10:22:00.977953,+0.20,-0.29,-0.93,51.5399032,-0.0129495
2026-06-18T10:22:01.038834,+0.10,-0.22,-0.92,51.5399032,-0.0129495
2026-06-18T10:22:01.098743,+0.20,-0.14,-0.81,51.5399032,-0.0129495
2026-06-18T10:22:01.161086,+0.08,-0.14,-0.98,51.5399032,-0.0129495
2026-06-18T10:22:01.250419,+0.20,-0.15,-0.97,51.5399032,-0.0129495
2026-06-18T10:22:01.308376,+0.10,-0.12,-0.93,51.5399032,-0.0129495
2026-06-18T10:22:01.370831,+0.14,-0.08,-0.70,51.5399032,-0.0129495
2026-06-18T10:22:01.431085,+0.29,-0.19,-1.04,51.5399032,-0.0129495
2026-06-18T10:22:01.489551,+0.20,-0.25,-0.77,51.5399032,-0.0129495
2026-06-18T10:22:01.578841,+0.43,-0.80,-0.96,51.5399032,-0.0129495
2026-06-18T10:22:01.640909,+0.35,-0.33,-1.24,51.5399032,-0.0129495
2026-06-18T10:22:01.700776,+0.25,-0.46,-1.38,51.5399032,-0.0129495
2026-06-18T10:22:01.758830,+0.15,-0.24,-1.06,51.5399032,-0.0129495
2026-06-18T10:22:01.817868,+0.04,+0.04,-0.70,51.5399323,-0.012979
2026-06-18T10:22:01.910506,+0.22,-0.42,-0.96,51.5399323,-0.012979
2026-06-18T10:22:01.967440,+0.06,+0.01,-1.00,51.5399323,-0.012979
2026-06-18T10:22:02.029870,+0.15,-0.09,-1.02,51.5399323,-0.012979
2026-06-18T10:22:02.089707,+0.11,-0.06,-0.93,51.5399323,-0.012979
2026-06-18T10:22:02.181358,+0.10,-0.09,-1.25,51.5399323,-0.012979
2026-06-18T10:22:02.239930,+0.12,-0.20,-0.83,51.5399323,-0.012979
2026-06-18T10:22:02.300901,+0.12,-0.14,-1.01,51.5399323,-0.012979
2026-06-18T10:22:02.357796,+0.26,-0.31,-1.03,51.5399323,-0.012979
2026-06-18T10:22:02.418847,+0.13,-0.09,-1.05,51.5399323,-0.012979
2026-06-18T10:22:02.510014,+0.13,-0.15,-0.95,51.5399323,-0.012979
2026-06-18T10:22:02.571623,+0.17,-0.16,-0.90,51.5399323,-0.012979
2026-06-18T10:22:02.630839,+0.10,-0.15,-1.20,51.5399323,-0.012979
2026-06-18T10:22:02.689076,+0.20,-0.23,-0.80,51.5399323,-0.012979
2026-06-18T10:22:02.750470,+0.14,-0.18,-0.95,51.5399323,-0.012979
2026-06-18T10:22:02.839559,+0.22,-0.23,-1.10,51.5399623,-0.0130166
2026-06-18T10:22:02.897144,+0.11,+0.01,-1.15,51.5399623,-0.0130166
2026-06-18T10:22:02.961349,+0.16,-0.11,-0.99,51.5399623,-0.0130166
2026-06-18T10:22:03.018357,+0.19,-0.14,-1.03,51.5399623,-0.0130166
2026-06-18T10:22:03.080125,+0.14,-0.21,-0.95,51.5399623,-0.0130166
2026-06-18T10:22:03.170600,+0.22,-0.30,-0.81,51.5399623,-0.0130166
2026-06-18T10:22:03.229766,+0.11,-0.18,-0.83,51.5399623,-0.0130166
2026-06-18T10:22:03.290336,+0.11,-0.24,-0.89,51.5399623,-0.0130166
2026-06-18T10:22:03.351407,+0.12,-0.15,-1.00,51.5399623,-0.0130166
2026-06-18T10:22:03.410009,+0.17,-0.16,-0.89,51.5399623,-0.0130166
2026-06-18T10:22:03.500780,+0.16,-0.30,-0.94,51.5399623,-0.0130166
2026-06-18T10:22:03.559372,+0.02,-0.02,-1.13,51.5399623,-0.0130166
2026-06-18T10:22:03.620975,+0.22,-0.24,-0.88,51.5399623,-0.0130166
2026-06-18T10:22:03.680277,+0.23,-0.18,-0.92,51.5399623,-0.0130166
2026-06-18T10:22:03.740938,+0.17,-0.08,-0.86,51.5399623,-0.0130166
2026-06-18T10:22:03.828952,+0.18,-0.18,-1.04,51.5399962,-0.0130552
2026-06-18T10:22:03.888715,+0.12,-0.12,-1.03,51.5399962,-0.0130552
2026-06-18T10:22:03.951030,+0.19,-0.22,-0.88,51.5399962,-0.0130552
2026-06-18T10:22:04.010446,+0.16,-0.05,-1.08,51.5399962,-0.0130552
2026-06-18T10:22:04.071317,+0.19,-0.27,-0.85,51.5399962,-0.0130552
2026-06-18T10:22:04.158082,+0.19,-0.21,-0.96,51.5399962,-0.0130552
2026-06-18T10:22:04.218419,+0.21,-0.33,-0.74,51.5399962,-0.0130552
2026-06-18T10:22:04.279458,+0.17,-0.23,-0.90,51.5399962,-0.0130552
2026-06-18T10:22:04.370106,+0.17,-0.14,-0.85,51.5399962,-0.0130552
2026-06-18T10:22:04.430730,+0.12,-0.15,-0.97,51.5399962,-0.0130552
2026-06-18T10:22:04.490450,+0.06,-0.12,-1.04,51.5399962,-0.0130552
2026-06-18T10:22:04.547628,+0.18,-0.26,-0.95,51.5399962,-0.0130552
2026-06-18T10:22:04.610751,+0.25,-0.24,-0.87,51.5399962,-0.0130552
2026-06-18T10:22:04.700590,+0.27,-0.17,-1.01,51.5399962,-0.0130552
2026-06-18T10:22:04.757327,+0.09,-0.09,-1.04,51.5399962,-0.0130552
2026-06-18T10:22:04.816271,+0.21,-0.24,-0.82,51.5400304,-0.0130917
2026-06-18T10:22:04.879762,+0.19,-0.28,-1.14,51.5400304,-0.0130917
2026-06-18T10:22:04.938029,+0.05,-0.07,-1.01,51.5400304,-0.0130917
2026-06-18T10:22:05.031332,+0.10,-0.25,-0.92,51.5400304,-0.0130917
2026-06-18T10:22:05.092383,+0.21,-0.23,-0.82,51.5400304,-0.0130917
2026-06-18T10:22:05.146263,+0.19,-0.18,-1.00,51.5400304,-0.0130917
2026-06-18T10:22:05.207593,+0.04,-0.06,-1.07,51.5400304,-0.0130917
2026-06-18T10:22:05.269462,+0.31,-0.34,-0.10,51.5400304,-0.0130917
2026-06-18T10:22:05.360943,+0.21,-0.03,-1.00,51.5400304,-0.0130917
2026-06-18T10:22:05.419554,+0.03,+0.11,-1.19,51.5400304,-0.0130917
2026-06-18T10:22:05.479492,+0.07,-0.05,-0.60,51.5400304,-0.0130917
2026-06-18T10:22:05.535921,+0.45,-0.67,-1.12,51.5400304,-0.0130917
2026-06-18T10:22:05.597800,+0.23,-0.13,-1.35,51.5400304,-0.0130917
2026-06-18T10:22:05.689303,+0.20,-0.19,-0.84,51.5400304,-0.0130917
2026-06-18T10:22:05.749030,+0.24,-0.28,-1.04,51.5400304,-0.0130917
2026-06-18T10:22:05.807103,+0.25,-0.21,-1.10,51.5400625,-0.0131281
2026-06-18T10:22:05.868346,-0.03,+0.12,-0.91,51.5400625,-0.0131281
2026-06-18T10:22:05.927215,+0.29,-0.29,-0.99,51.5400625,-0.0131281
2026-06-18T10:22:06.020227,+0.04,-0.06,-1.13,51.5400625,-0.0131281
2026-06-18T10:22:06.079009,+0.10,-0.14,-1.14,51.5400625,-0.0131281
2026-06-18T10:22:06.136034,+0.23,-0.26,-0.81,51.5400625,-0.0131281
2026-06-18T10:22:06.197831,+0.02,+0.03,-0.95,51.5400625,-0.0131281
2026-06-18T10:22:06.256555,+0.20,-0.20,-0.92,51.5400625,-0.0131281
2026-06-18T10:22:06.349961,+0.02,-0.07,-1.14,51.5400625,-0.0131281
2026-06-18T10:22:06.408885,+0.07,-0.10,-1.05,51.5400625,-0.0131281
2026-06-18T10:22:06.471173,+0.12,-0.18,-1.03,51.5400625,-0.0131281
2026-06-18T10:22:06.530324,+0.09,-0.05,-1.01,51.5400625,-0.0131281
2026-06-18T10:22:06.619015,+0.22,-0.33,-1.03,51.5400625,-0.0131281
2026-06-18T10:22:06.680098,+0.15,-0.15,-0.86,51.5400625,-0.0131281
2026-06-18T10:22:06.740776,+0.12,-0.09,-0.96,51.5400625,-0.0131281
2026-06-18T10:22:06.795684,+0.21,-0.19,-0.83,51.5400625,-0.0131281
2026-06-18T10:22:06.859120,+0.00,+0.03,-1.09,51.5400944,-0.0131685
2026-06-18T10:22:06.954768,+0.24,-0.34,-1.03,51.5400944,-0.0131685
2026-06-18T10:22:07.007144,+0.18,-0.16,-0.70,51.5400944,-0.0131685
2026-06-18T10:22:07.070506,+0.22,-0.20,-1.02,51.5400944,-0.0131685
2026-06-18T10:22:07.129285,+0.33,-0.36,-0.76,51.5400944,-0.0131685
2026-06-18T10:22:07.191155,+0.07,-0.05,-0.97,51.5400944,-0.0131685
2026-06-18T10:22:07.279812,+0.06,-0.17,-1.07,51.5400944,-0.0131685
2026-06-18T10:22:07.342504,+0.14,-0.20,-0.95,51.5400944,-0.0131685
2026-06-18T10:22:07.401941,+0.21,-0.26,-0.78,51.5400944,-0.0131685
2026-06-18T10:22:07.458056,+0.23,-0.19,-0.77,51.5400944,-0.0131685
2026-06-18T10:22:07.520378,+0.11,+0.08,-0.92,51.5400944,-0.0131685
2026-06-18T10:22:07.612364,+0.13,-0.28,-1.19,51.5400944,-0.0131685
2026-06-18T10:22:07.667415,+0.20,-0.22,-1.02,51.5400944,-0.0131685
2026-06-18T10:22:07.730665,+0.08,-0.11,-1.06,51.5400944,-0.0131685
2026-06-18T10:22:07.786758,+0.24,-0.16,-0.89,51.5400944,-0.0131685
2026-06-18T10:22:07.850839,+0.08,-0.14,-1.05,51.540127,-0.0132058
2026-06-18T10:22:07.938590,+0.13,-0.11,-1.12,51.540127,-0.0132058
2026-06-18T10:22:08.000490,+0.17,-0.07,-1.11,51.540127,-0.0132058
2026-06-18T10:22:08.061547,+0.09,-0.09,-0.87,51.540127,-0.0132058
2026-06-18T10:22:08.119192,+0.27,-0.21,-0.91,51.540127,-0.0132058
2026-06-18T10:22:08.180718,+0.07,+0.01,-0.84,51.540127,-0.0132058
2026-06-18T10:22:08.273888,+0.05,-0.09,-0.96,51.540127,-0.0132058
2026-06-18T10:22:08.327785,+0.22,-0.30,-0.93,51.540127,-0.0132058
2026-06-18T10:22:08.391742,+0.11,-0.14,-1.02,51.540127,-0.0132058
2026-06-18T10:22:08.446177,+0.19,-0.25,-0.94,51.540127,-0.0132058
2026-06-18T10:22:08.540227,+0.17,-0.20,-0.95,51.540127,-0.0132058
2026-06-18T10:22:08.598106,+0.10,-0.11,-0.94,51.540127,-0.0132058
2026-06-18T10:22:08.655726,+0.06,-0.02,-0.84,51.540127,-0.0132058
2026-06-18T10:22:08.716028,+0.25,-0.30,-1.02,51.540127,-0.0132058
2026-06-18T10:22:08.776597,+0.15,-0.24,-1.17,51.540127,-0.0132058
2026-06-18T10:22:08.870095,-0.09,+0.14,-0.96,51.5401597,-0.013244
2026-06-18T10:22:08.928607,+0.21,-0.33,-1.17,51.5401597,-0.013244
2026-06-18T10:22:08.987136,+0.14,-0.15,-1.01,51.5401597,-0.013244
2026-06-18T10:22:09.045971,+0.09,-0.18,-0.87,51.5401597,-0.013244
2026-06-18T10:22:09.107758,+0.18,-0.14,-0.96,51.5401597,-0.013244
2026-06-18T10:22:09.199210,+0.14,-0.07,-0.98,51.5401597,-0.013244
2026-06-18T10:22:09.257492,+0.11,-0.15,-1.05,51.5401597,-0.013244
2026-06-18T10:22:09.320309,+0.15,-0.30,-0.99,51.5401597,-0.013244
2026-06-18T10:22:09.379426,+0.11,-0.02,-1.09,51.5401597,-0.013244
2026-06-18T10:22:09.437416,+0.12,-0.16,-0.96,51.5401597,-0.013244
2026-06-18T10:22:09.530221,+0.07,-0.08,-0.96,51.5401597,-0.013244
2026-06-18T10:22:09.590495,+0.16,-0.19,-1.12,51.5401597,-0.013244
2026-06-18T10:22:09.652348,+0.08,-0.07,-1.02,51.5401597,-0.013244
2026-06-18T10:22:09.710269,+0.13,-0.14,-0.83,51.5401597,-0.013244
2026-06-18T10:22:09.772307,+0.17,-0.20,-0.91,51.5401597,-0.013244
2026-06-18T10:22:09.860395,+0.10,-0.08,-1.05,51.540191,-0.0132856
2026-06-18T10:22:09.915713,+0.09,-0.09,-0.99,51.540191,-0.0132856
2026-06-18T10:22:09.975754,+0.17,-0.20,-0.96,51.540191,-0.0132856
2026-06-18T10:22:10.035530,+0.03,+0.04,-1.01,51.540191,-0.0132856
2026-06-18T10:22:10.129666,+0.16,-0.19,-1.03,51.540191,-0.0132856
2026-06-18T10:22:10.187338,+0.03,-0.02,-1.15,51.540191,-0.0132856
2026-06-18T10:22:10.249156,+0.08,-0.12,-0.93,51.540191,-0.0132856
2026-06-18T10:22:10.310644,+0.21,-0.29,-0.80,51.540191,-0.0132856
2026-06-18T10:22:10.368520,+0.04,+0.05,-1.08,51.540191,-0.0132856
2026-06-18T10:22:10.460524,+0.15,-0.14,-0.94,51.540191,-0.0132856
2026-06-18T10:22:10.520418,+0.14,-0.15,-0.90,51.540191,-0.0132856
2026-06-18T10:22:10.580922,+0.15,-0.16,-1.14,51.540191,-0.0132856
2026-06-18T10:22:10.640489,+0.12,-0.08,-0.85,51.540191,-0.0132856
2026-06-18T10:22:10.731162,+0.25,-0.32,-0.85,51.540191,-0.0132856
2026-06-18T10:22:10.786095,+0.08,-0.12,-1.13,51.540191,-0.0132856
2026-06-18T10:22:10.848422,+0.09,-0.11,-1.04,51.5402199,-0.01333
2026-06-18T10:22:10.906656,+0.24,-0.31,-0.91,51.5402199,-0.01333
2026-06-18T10:22:10.966043,+0.14,-0.18,-0.87,51.5402199,-0.01333
2026-06-18T10:22:11.061737,+0.04,+0.01,-1.10,51.5402199,-0.01333
2026-06-18T10:22:11.118857,+0.08,-0.05,-1.19,51.5402199,-0.01333
2026-06-18T10:22:11.179367,+0.19,-0.32,-0.98,51.5402199,-0.01333
2026-06-18T10:22:11.242091,+0.10,-0.14,-1.18,51.5402199,-0.01333
2026-06-18T10:22:11.298402,-0.01,-0.00,-1.16,51.5402199,-0.01333
2026-06-18T10:22:11.390626,+0.05,-0.08,-1.05,51.5402199,-0.01333
2026-06-18T10:22:11.447970,+0.11,-0.12,-1.00,51.5402199,-0.01333
2026-06-18T10:22:11.511946,+0.02,-0.06,-0.92,51.5402199,-0.01333
2026-06-18T10:22:11.569997,+0.16,-0.18,-0.81,51.5402199,-0.01333
2026-06-18T10:22:11.630221,+0.19,-0.21,-0.97,51.5402199,-0.01333
2026-06-18T10:22:11.720757,+0.07,-0.09,-0.92,51.5402199,-0.01333
2026-06-18T10:22:11.777248,+0.11,-0.15,-1.01,51.5402199,-0.01333
2026-06-18T10:22:11.838035,+0.13,-0.16,-1.09,51.5402517,-0.0133703
2026-06-18T10:22:11.900405,+0.11,-0.13,-1.07,51.5402517,-0.0133703
2026-06-18T10:22:11.958341,+0.14,-0.12,-0.90,51.5402517,-0.0133703
2026-06-18T10:22:12.051464,+0.12,-0.15,-0.99,51.5402517,-0.0133703
2026-06-18T10:22:12.107712,+0.04,+0.00,-1.15,51.5402517,-0.0133703
2026-06-18T10:22:12.172144,+0.14,-0.18,-0.75,51.5402517,-0.0133703
2026-06-18T10:22:12.231596,+0.14,-0.17,-1.03,51.5402517,-0.0133703
2026-06-18T10:22:12.287204,+0.21,-0.26,-0.93,51.5402517,-0.0133703
2026-06-18T10:22:12.380259,+0.08,-0.04,-1.15,51.5402517,-0.0133703
2026-06-18T10:22:12.437927,+0.06,-0.09,-0.98,51.5402517,-0.0133703
2026-06-18T10:22:12.500633,+0.09,-0.11,-1.05,51.5402517,-0.0133703
2026-06-18T10:22:12.559547,+0.09,-0.07,-0.84,51.5402517,-0.0133703
2026-06-18T10:22:12.650938,+0.05,-0.08,-1.11,51.5402517,-0.0133703
2026-06-18T10:22:12.709660,-0.05,+0.01,-1.16,51.5402517,-0.0133703
2026-06-18T10:22:12.767984,+0.07,-0.00,-1.14,51.5402517,-0.0133703
2026-06-18T10:22:12.827356,+0.17,-0.14,-1.03,51.5402826,-0.01341
2026-06-18T10:22:12.892465,+0.22,-0.26,-0.64,51.5402826,-0.01341
2026-06-18T10:22:12.980334,-0.16,+0.28,-1.32,51.5402826,-0.01341
2026-06-18T10:22:13.038800,+0.12,-0.18,-1.09,51.5402826,-0.01341
2026-06-18T10:22:13.101515,+0.12,-0.12,-0.96,51.5402826,-0.01341
2026-06-18T10:22:13.159729,+0.21,-0.24,-0.76,51.5402826,-0.01341
2026-06-18T10:22:13.222847,+0.01,+0.02,-1.03,51.5402826,-0.01341
2026-06-18T10:22:13.311828,+0.20,-0.19,-0.86,51.5402826,-0.01341
2026-06-18T10:22:13.367486,+0.05,-0.12,-1.11,51.5402826,-0.01341
2026-06-18T10:22:13.429974,+0.25,-0.36,-0.85,51.5402826,-0.01341
2026-06-18T10:22:13.490421,+0.17,-0.08,-1.04,51.5402826,-0.01341
2026-06-18T10:22:13.582897,-0.02,-0.04,-1.12,51.5402826,-0.01341
2026-06-18T10:22:13.638478,+0.13,-0.08,-0.68,51.5402826,-0.01341
2026-06-18T10:22:13.699201,+0.22,-0.10,-1.02,51.5402826,-0.01341
2026-06-18T10:22:13.759488,+0.15,-0.16,-0.97,51.5402826,-0.01341
2026-06-18T10:22:13.816379,+0.09,-0.20,-0.90,51.5403144,-0.013451
2026-06-18T10:22:13.878150,+0.24,-0.21,-1.13,51.5403144,-0.013451
2026-06-18T10:22:13.973347,+0.28,-0.31,-1.20,51.5403144,-0.013451
2026-06-18T10:22:14.031435,+0.02,-0.06,-0.84,51.5403144,-0.013451
2026-06-18T10:22:14.087359,+0.12,-0.15,-0.98,51.5403144,-0.013451
2026-06-18T10:22:14.149239,+0.22,-0.19,-1.00,51.5403144,-0.013451
2026-06-18T10:22:14.209002,+0.20,-0.24,-0.57,51.5403144,-0.013451
2026-06-18T10:22:14.298332,+0.11,-0.11,-1.04,51.5403144,-0.013451
2026-06-18T10:22:14.358290,+0.21,-0.20,-1.11,51.5403144,-0.013451
2026-06-18T10:22:14.421247,+0.25,-0.28,-0.70,51.5403144,-0.013451
2026-06-18T10:22:14.479642,+0.28,-0.31,-0.91,51.5403144,-0.013451
2026-06-18T10:22:14.570163,+0.07,-0.05,-0.99,51.5403144,-0.013451
2026-06-18T10:22:14.628508,+0.17,-0.27,-1.07,51.5403144,-0.013451
2026-06-18T10:22:14.691023,+0.11,-0.19,-0.98,51.5403144,-0.013451
2026-06-18T10:22:14.748320,+0.11,-0.29,-1.16,51.5403144,-0.013451
2026-06-18T10:22:14.805700,+0.27,-0.32,-0.45,51.5403144,-0.013451
2026-06-18T10:22:14.899498,+0.10,+0.01,-0.76,51.5403473,-0.0134852
2026-06-18T10:22:14.959288,+0.18,-0.16,-0.90,51.5403473,-0.0134852
2026-06-18T10:22:15.021951,+0.16,-0.15,-0.87,51.5403473,-0.0134852
2026-06-18T10:22:15.081068,+0.43,-0.65,-1.15,51.5403473,-0.0134852
2026-06-18T10:22:15.140017,+0.16,-0.18,-1.03,51.5403473,-0.0134852
2026-06-18T10:22:15.230284,+0.13,-0.20,-0.80,51.5403473,-0.0134852
2026-06-18T10:22:15.287313,+0.22,-0.16,-1.08,51.5403473,-0.0134852
2026-06-18T10:22:15.349332,+0.20,-0.16,-1.10,51.5403473,-0.0134852
2026-06-18T10:22:15.411792,+0.10,-0.16,-0.96,51.5403473,-0.0134852
2026-06-18T10:22:15.472712,+0.19,-0.22,-1.15,51.5403473,-0.0134852
2026-06-18T10:22:15.559352,+0.17,-0.12,-0.94,51.5403473,-0.0134852
2026-06-18T10:22:15.619671,+0.12,-0.15,-0.96,51.5403473,-0.0134852
2026-06-18T10:22:15.679629,+0.17,-0.14,-0.87,51.5403473,-0.0134852
2026-06-18T10:22:15.739357,+0.01,+0.03,-1.12,51.5403473,-0.0134852
2026-06-18T10:22:15.796273,+0.19,-0.22,-0.92,51.5403473,-0.0134852
2026-06-18T10:22:15.891782,+0.23,-0.26,-0.79,51.5403821,-0.0135133
2026-06-18T10:22:15.951694,+0.19,-0.17,-1.04,51.5403821,-0.0135133
2026-06-18T10:22:16.010900,+0.09,-0.08,-1.16,51.5403821,-0.0135133
2026-06-18T10:22:16.071700,+0.14,-0.19,-0.87,51.5403821,-0.0135133
2026-06-18T10:22:16.132115,+0.24,-0.27,-0.93,51.5403821,-0.0135133
2026-06-18T10:22:16.222330,+0.07,-0.12,-1.27,51.5403821,-0.0135133
2026-06-18T10:22:16.279571,+0.10,-0.15,-1.04,51.5403821,-0.0135133
2026-06-18T10:22:16.340789,+0.18,-0.25,-0.62,51.5403821,-0.0135133
2026-06-18T10:22:16.398983,+0.10,-0.03,-0.93,51.5403821,-0.0135133
2026-06-18T10:22:16.460535,+0.24,-0.23,-0.94,51.5403821,-0.0135133
2026-06-18T10:22:16.552553,+0.08,-0.10,-1.08,51.5403821,-0.0135133
2026-06-18T10:22:16.611818,+0.08,-0.22,-1.16,51.5403821,-0.0135133
2026-06-18T10:22:16.672590,+0.19,-0.18,-1.10,51.5403821,-0.0135133
2026-06-18T10:22:16.729997,+0.14,-0.16,-1.01,51.5403821,-0.0135133
2026-06-18T10:22:16.816852,+0.08,-0.09,-0.90,51.5404173,-0.0135422
2026-06-18T10:22:16.879093,+0.13,-0.18,-0.94,51.5404173,-0.0135422
2026-06-18T10:22:16.938671,+0.06,-0.08,-1.03,51.5404173,-0.0135422
2026-06-18T10:22:17.000995,+0.18,-0.21,-1.06,51.5404173,-0.0135422
2026-06-18T10:22:17.060487,+0.11,-0.17,-0.92,51.5404173,-0.0135422
2026-06-18T10:22:17.151539,+0.15,-0.16,-0.92,51.5404173,-0.0135422
2026-06-18T10:22:17.210830,+0.17,-0.12,-0.96,51.5404173,-0.0135422
2026-06-18T10:22:17.271688,+0.13,-0.14,-1.09,51.5404173,-0.0135422
2026-06-18T10:22:17.331198,+0.14,-0.23,-1.04,51.5404173,-0.0135422
2026-06-18T10:22:17.389514,+0.12,-0.18,-0.92,51.5404173,-0.0135422
2026-06-18T10:22:17.481555,+0.17,-0.13,-0.88,51.5404173,-0.0135422
2026-06-18T10:22:17.536993,+0.19,-0.24,-0.88,51.5404173,-0.0135422
2026-06-18T10:22:17.601719,+0.14,-0.06,-0.89,51.5404173,-0.0135422
2026-06-18T10:22:17.658259,+0.12,-0.18,-1.17,51.5404173,-0.0135422
2026-06-18T10:22:17.720376,+0.17,-0.24,-1.07,51.5404173,-0.0135422
2026-06-18T10:22:17.807307,+0.27,-0.30,-0.99,51.5404505,-0.013573
2026-06-18T10:22:17.868248,+0.16,-0.23,-1.00,51.5404505,-0.013573
2026-06-18T10:22:17.930884,+0.08,-0.09,-0.99,51.5404505,-0.013573
2026-06-18T10:22:17.990138,+0.21,-0.19,-0.78,51.5404505,-0.013573
2026-06-18T10:22:18.050016,+0.16,-0.19,-0.86,51.5404505,-0.013573
2026-06-18T10:22:18.139623,+0.08,-0.13,-1.00,51.5404505,-0.013573
2026-06-18T10:22:18.198129,+0.08,-0.13,-0.99,51.5404505,-0.013573
2026-06-18T10:22:18.259314,+0.13,-0.15,-1.17,51.5404505,-0.013573
2026-06-18T10:22:18.320024,+0.08,-0.08,-1.33,51.5404505,-0.013573
2026-06-18T10:22:18.380202,+0.09,-0.10,-0.82,51.5404505,-0.013573
2026-06-18T10:22:18.472709,+0.17,-0.25,-1.09,51.5404505,-0.013573
2026-06-18T10:22:18.531147,+0.13,-0.12,-1.03,51.5404505,-0.013573
2026-06-18T10:22:18.591065,-0.11,+0.09,-1.28,51.5404505,-0.013573
2026-06-18T10:22:18.680615,-0.02,-0.08,-1.11,51.5404505,-0.013573
2026-06-18T10:22:18.738592,+0.06,-0.06,-0.98,51.5404505,-0.013573
2026-06-18T10:22:18.795584,+0.15,-0.12,-0.83,51.5404505,-0.013573
2026-06-18T10:22:18.857279,+0.09,+0.03,-0.78,51.5404752,-0.0136015
2026-06-18T10:22:18.917706,-0.02,+0.05,-1.17,51.5404752,-0.0136015
2026-06-18T10:22:19.010397,+0.29,-0.36,-1.06,51.5404752,-0.0136015
2026-06-18T10:22:19.069136,+0.24,-0.24,-1.04,51.5404752,-0.0136015
2026-06-18T10:22:19.131307,+0.10,-0.08,-0.78,51.5404752,-0.0136015
2026-06-18T10:22:19.192416,+0.17,-0.23,-1.07,51.5404752,-0.0136015
2026-06-18T10:22:19.251574,+0.16,-0.08,-1.03,51.5404752,-0.0136015
2026-06-18T10:22:19.340589,+0.11,-0.15,-0.92,51.5404752,-0.0136015
2026-06-18T10:22:19.399526,+0.22,-0.27,-0.86,51.5404752,-0.0136015
2026-06-18T10:22:19.458986,+0.16,-0.11,-1.08,51.5404752,-0.0136015
2026-06-18T10:22:19.519593,+0.19,-0.22,-1.09,51.5404752,-0.0136015
2026-06-18T10:22:19.579239,+0.27,-0.26,-0.69,51.5404752,-0.0136015
2026-06-18T10:22:19.667546,+0.02,+0.08,-0.71,51.5404752,-0.0136015
2026-06-18T10:22:19.734963,+0.08,-0.08,-1.10,51.5404752,-0.0136015
2026-06-18T10:22:19.794708,+0.13,-0.17,-1.20,51.5404752,-0.0136015
2026-06-18T10:22:19.850975,+0.07,-0.12,-1.09,51.5405006,-0.0136292
2026-06-18T10:22:19.910076,+0.19,-0.23,-0.92,51.5405006,-0.0136292
2026-06-18T10:22:20.000882,+0.11,-0.11,-0.96,51.5405006,-0.0136292
2026-06-18T10:22:20.060003,+0.15,-0.15,-1.02,51.5405006,-0.0136292
2026-06-18T10:22:20.116188,+0.14,-0.16,-0.86,51.5405006,-0.0136292
2026-06-18T10:22:20.180572,+0.22,-0.17,-0.88,51.5405006,-0.0136292
2026-06-18T10:22:20.239829,+0.08,-0.20,-1.08,51.5405006,-0.0136292
2026-06-18T10:22:20.330759,-0.09,+0.11,-1.26,51.5405006,-0.0136292
2026-06-18T10:22:20.387456,+0.17,-0.31,-1.03,51.5405006,-0.0136292
2026-06-18T10:22:20.450863,+0.17,-0.18,-0.99,51.5405006,-0.0136292
2026-06-18T10:22:20.510221,-0.04,-0.04,-1.02,51.5405006,-0.0136292
2026-06-18T10:22:20.570820,-0.03,-0.02,-1.14,51.5405006,-0.0136292
2026-06-18T10:22:20.657999,+0.21,-0.29,-0.96,51.5405006,-0.0136292
2026-06-18T10:22:20.718248,+0.17,-0.18,-0.85,51.5405006,-0.0136292
2026-06-18T10:22:20.780774,+0.12,-0.13,-0.87,51.5405006,-0.0136292
2026-06-18T10:22:20.836810,+0.16,-0.17,-1.00,51.5405266,-0.0136544
2026-06-18T10:22:20.928324,+0.20,-0.19,-0.89,51.5405266,-0.0136544
2026-06-18T10:22:20.989346,+0.19,-0.20,-0.95,51.5405266,-0.0136544
2026-06-18T10:22:21.050965,+0.13,-0.21,-0.92,51.5405266,-0.0136544
2026-06-18T10:22:21.109781,+0.06,-0.14,-1.04,51.5405266,-0.0136544
2026-06-18T10:22:21.170198,+0.11,-0.18,-1.24,51.5405266,-0.0136544
2026-06-18T10:22:21.259280,+0.12,-0.19,-0.86,51.5405266,-0.0136544
2026-06-18T10:22:21.319510,+0.16,-0.12,-1.04,51.5405266,-0.0136544
2026-06-18T10:22:21.379642,+0.06,-0.07,-1.03,51.5405266,-0.0136544
2026-06-18T10:22:21.439472,+0.12,-0.13,-1.12,51.5405266,-0.0136544
2026-06-18T10:22:21.500815,+0.10,-0.10,-0.99,51.5405266,-0.0136544
2026-06-18T10:22:21.590357,+0.07,-0.05,-1.04,51.5405266,-0.0136544
2026-06-18T10:22:21.650341,+0.06,-0.06,-0.91,51.5405266,-0.0136544
2026-06-18T10:22:21.708261,+0.18,-0.15,-0.88,51.5405266,-0.0136544
2026-06-18T10:22:21.772560,+0.33,-0.32,-0.96,51.5405266,-0.0136544
2026-06-18T10:22:21.827601,+0.09,-0.08,-0.96,51.5405733,-0.0136935
2026-06-18T10:22:21.918438,+0.20,-0.17,-0.77,51.5405733,-0.0136935
2026-06-18T10:22:21.978761,+0.21,-0.14,-1.00,51.5405733,-0.0136935
2026-06-18T10:22:22.039690,+0.12,-0.16,-1.06,51.5405733,-0.0136935
2026-06-18T10:22:22.098707,+0.15,-0.28,-0.78,51.5405733,-0.0136935
2026-06-18T10:22:22.160992,+0.20,-0.30,-0.89,51.5405733,-0.0136935
2026-06-18T10:22:22.251933,+0.19,-0.13,-1.18,51.5405733,-0.0136935
2026-06-18T10:22:22.310314,+0.02,-0.14,-1.20,51.5405733,-0.0136935
2026-06-18T10:22:22.371122,+0.22,-0.28,-0.69,51.5405733,-0.0136935
2026-06-18T10:22:22.429295,+0.22,-0.33,-1.23,51.5405733,-0.0136935
2026-06-18T10:22:22.491681,-0.02,+0.04,-0.97,51.5405733,-0.0136935
2026-06-18T10:22:22.580489,+0.24,-0.15,-1.01,51.5405733,-0.0136935
2026-06-18T10:22:22.636734,+0.14,-0.04,-0.89,51.5405733,-0.0136935
2026-06-18T10:22:22.730356,+0.05,+0.01,-0.78,51.5405733,-0.0136935
2026-06-18T10:22:22.758352,+0.10,-0.06,-1.07,51.5405733,-0.0136935
2026-06-18T10:22:22.847925,+0.20,-0.10,-0.47,51.5406091,-0.0137419
2026-06-18T10:22:22.910885,+0.13,-0.07,-1.09,51.5406091,-0.0137419
2026-06-18T10:22:22.972478,+0.12,-0.20,-1.05,51.5406091,-0.0137419
2026-06-18T10:22:23.028920,+0.16,-0.27,-1.17,51.5406091,-0.0137419
2026-06-18T10:22:23.091697,+0.27,-0.36,-1.13,51.5406091,-0.0137419
2026-06-18T10:22:23.179718,+0.04,-0.07,-1.00,51.5406091,-0.0137419
2026-06-18T10:22:23.238714,+0.08,-0.15,-1.08,51.5406091,-0.0137419
2026-06-18T10:22:23.301981,+0.09,-0.20,-0.90,51.5406091,-0.0137419
2026-06-18T10:22:23.361991,+0.17,-0.23,-0.85,51.5406091,-0.0137419
2026-06-18T10:22:23.422042,+0.11,-0.14,-0.97,51.5406091,-0.0137419
2026-06-18T10:22:23.512331,+0.10,-0.18,-1.09,51.5406091,-0.0137419
2026-06-18T10:22:23.568199,+0.00,-0.10,-1.41,51.5406091,-0.0137419
2026-06-18T10:22:23.630228,+0.20,-0.19,-0.78,51.5406091,-0.0137419
2026-06-18T10:22:23.692306,+0.19,-0.13,-0.93,51.5406091,-0.0137419
2026-06-18T10:22:23.750309,+0.19,-0.19,-0.79,51.5406091,-0.0137419
2026-06-18T10:22:23.839,+0.03,+0.07,-1.37,51.5406462,-0.013789
2026-06-18T10:22:23.899066,+0.12,-0.28,-0.97,51.5406462,-0.013789
2026-06-18T10:22:23.960592,+0.10,-0.19,-1.13,51.5406462,-0.013789
2026-06-18T10:22:24.021094,+0.17,-0.27,-0.89,51.5406462,-0.013789
2026-06-18T10:22:24.078857,+0.16,-0.17,-0.98,51.5406462,-0.013789
2026-06-18T10:22:24.167817,+0.14,-0.06,-0.85,51.5406462,-0.013789
2026-06-18T10:22:24.229296,+0.13,-0.13,-1.05,51.5406462,-0.013789
2026-06-18T10:22:24.288558,+0.12,-0.05,-0.86,51.5406462,-0.013789
2026-06-18T10:22:24.348098,+0.13,-0.18,-0.95,51.5406462,-0.013789
2026-06-18T10:22:24.410092,+0.11,-0.14,-0.95,51.5406462,-0.013789
2026-06-18T10:22:24.499812,+0.18,-0.29,-0.77,51.5406462,-0.013789
2026-06-18T10:22:24.558153,+0.15,-0.21,-1.00,51.5406462,-0.013789
2026-06-18T10:22:24.620640,+0.18,-0.15,-0.91,51.5406462,-0.013789
2026-06-18T10:22:24.679115,+0.16,-0.24,-0.93,51.5406462,-0.013789
2026-06-18T10:22:24.740383,+0.17,-0.17,-0.67,51.5406462,-0.013789
2026-06-18T10:22:24.827092,+0.22,-0.26,-1.04,51.5406708,-0.013835
2026-06-18T10:22:24.890654,+0.06,-0.08,-1.16,51.5406708,-0.013835
2026-06-18T10:22:24.949098,+0.20,-0.26,-0.75,51.5406708,-0.013835
2026-06-18T10:22:25.005676,+0.12,-0.23,-1.32,51.5406708,-0.013835
2026-06-18T10:22:25.098261,+0.08,-0.12,-0.97,51.5406708,-0.013835
2026-06-18T10:22:25.157938,+0.05,-0.11,-1.11,51.5406708,-0.013835
2026-06-18T10:22:25.218754,+0.13,-0.13,-0.89,51.5406708,-0.013835
2026-06-18T10:22:25.279480,+0.13,-0.05,-0.89,51.5406708,-0.013835
2026-06-18T10:22:25.339720,+0.09,-0.08,-0.79,51.5406708,-0.013835
2026-06-18T10:22:25.431158,+0.12,-0.17,-1.20,51.5406708,-0.013835
2026-06-18T10:22:25.491979,+0.16,-0.13,-0.90,51.5406708,-0.013835
2026-06-18T10:22:25.551309,+0.33,-0.34,-1.02,51.5406708,-0.013835
2026-06-18T10:22:25.606704,+0.15,-0.16,-1.09,51.5406708,-0.013835
2026-06-18T10:22:25.665746,+0.16,-0.21,-1.21,51.5406708,-0.013835
2026-06-18T10:22:25.759524,+0.11,-0.12,-1.04,51.5406708,-0.013835
2026-06-18T10:22:25.819495,+0.10,-0.10,-0.92,51.5406938,-0.0138765
2026-06-18T10:22:25.877275,+0.06,-0.18,-1.12,51.5406938,-0.0138765
2026-06-18T10:22:25.940533,+0.18,-0.14,-1.12,51.5406938,-0.0138765
2026-06-18T10:22:25.997805,+0.26,-0.20,-0.84,51.5406938,-0.0138765
2026-06-18T10:22:26.088612,+0.12,-0.13,-0.92,51.5406938,-0.0138765
2026-06-18T10:22:26.147830,+0.21,-0.21,-0.81,51.5406938,-0.0138765
2026-06-18T10:22:26.208134,+0.22,-0.27,-0.77,51.5406938,-0.0138765
2026-06-18T10:22:26.267751,+0.11,-0.04,-1.11,51.5406938,-0.0138765
2026-06-18T10:22:26.327824,-0.08,+0.01,-1.75,51.5406938,-0.0138765
2026-06-18T10:22:26.417194,-0.04,+0.10,-1.13,51.5406938,-0.0138765
2026-06-18T10:22:26.481890,+0.04,-0.10,-0.96,51.5406938,-0.0138765
2026-06-18T10:22:26.538568,+0.17,-0.16,-1.06,51.5406938,-0.0138765
2026-06-18T10:22:26.597860,+0.15,-0.15,-1.03,51.5406938,-0.0138765
2026-06-18T10:22:26.658554,+0.13,-0.22,-0.86,51.5406938,-0.0138765
2026-06-18T10:22:26.750121,+0.22,-0.16,-1.00,51.5406938,-0.0138765
2026-06-18T10:22:26.806654,+0.12,-0.11,-1.01,51.5407088,-0.0139198
2026-06-18T10:22:26.868284,+0.17,-0.17,-0.90,51.5407088,-0.0139198
2026-06-18T10:22:26.929024,+0.17,-0.14,-0.81,51.5407088,-0.0139198
2026-06-18T10:22:27.018467,+0.18,-0.16,-1.00,51.5407088,-0.0139198
2026-06-18T10:22:27.076154,+0.11,-0.14,-1.12,51.5407088,-0.0139198
2026-06-18T10:22:27.142346,+0.08,-0.11,-1.05,51.5407088,-0.0139198
2026-06-18T10:22:27.195556,+0.10,-0.20,-0.93,51.5407088,-0.0139198
2026-06-18T10:22:27.256240,+0.15,-0.12,-1.05,51.5407088,-0.0139198
2026-06-18T10:22:27.350182,+0.07,-0.14,-1.08,51.5407088,-0.0139198
2026-06-18T10:22:27.406521,+0.08,-0.16,-1.07,51.5407088,-0.0139198
2026-06-18T10:22:27.466885,+0.12,-0.14,-1.00,51.5407088,-0.0139198
2026-06-18T10:22:27.526734,+0.14,-0.25,-0.92,51.5407088,-0.0139198
2026-06-18T10:22:27.585636,+0.14,-0.13,-1.05,51.5407088,-0.0139198
2026-06-18T10:22:27.680041,+0.15,-0.19,-0.94,51.5407088,-0.0139198
2026-06-18T10:22:27.737233,+0.18,-0.21,-0.99,51.5407088,-0.0139198
2026-06-18T10:22:27.796446,+0.10,-0.15,-1.04,51.5407375,-0.013949
2026-06-18T10:22:27.864086,+0.16,-0.22,-0.78,51.5407375,-0.013949
2026-06-18T10:22:27.919464,+0.12,-0.08,-1.03,51.5407375,-0.013949
2026-06-18T10:22:28.013303,+0.11,-0.19,-1.06,51.5407375,-0.013949
2026-06-18T10:22:28.070977,+0.10,-0.13,-0.97,51.5407375,-0.013949
2026-06-18T10:22:28.129119,+0.14,-0.10,-0.94,51.5407375,-0.013949
2026-06-18T10:22:28.192271,+0.14,-0.17,-0.95,51.5407375,-0.013949
2026-06-18T10:22:28.250127,+0.13,-0.18,-1.05,51.5407375,-0.013949
2026-06-18T10:22:28.339307,+0.11,-0.15,-0.96,51.5407375,-0.013949
2026-06-18T10:22:28.397076,+0.17,-0.15,-1.08,51.5407375,-0.013949
2026-06-18T10:22:28.459220,+0.15,-0.14,-0.92,51.5407375,-0.013949
2026-06-18T10:22:28.519599,+0.15,-0.19,-1.05,51.5407375,-0.013949
2026-06-18T10:22:28.578589,+0.14,-0.13,-1.02,51.5407375,-0.013949
2026-06-18T10:22:28.669752,+0.18,-0.17,-1.03,51.5407375,-0.013949
2026-06-18T10:22:28.730165,+0.14,-0.19,-0.92,51.5407375,-0.013949
2026-06-18T10:22:28.787851,+0.13,-0.17,-1.13,51.5407375,-0.013949
2026-06-18T10:22:28.847179,+0.14,-0.15,-0.86,51.5407673,-0.01398
2026-06-18T10:22:28.940537,+0.08,-0.18,-0.87,51.5407673,-0.01398
2026-06-18T10:22:28.998317,+0.14,-0.12,-0.91,51.5407673,-0.01398
2026-06-18T10:22:29.056877,+0.15,-0.20,-0.88,51.5407673,-0.01398
2026-06-18T10:22:29.121661,+0.21,-0.18,-0.91,51.5407673,-0.01398
2026-06-18T10:22:29.210987,+0.15,-0.17,-1.04,51.5407673,-0.01398
2026-06-18T10:22:29.270473,+0.14,-0.12,-0.90,51.5407673,-0.01398
2026-06-18T10:22:29.329930,+0.11,-0.11,-1.06,51.5407673,-0.01398
2026-06-18T10:22:29.389506,-0.02,-0.02,-0.99,51.5407673,-0.01398
2026-06-18T10:22:29.448463,+0.13,-0.20,-1.07,51.5407673,-0.01398
2026-06-18T10:22:29.540801,+0.18,-0.24,-1.16,51.5407673,-0.01398
2026-06-18T10:22:29.598593,+0.18,-0.19,-0.97,51.5407673,-0.01398
2026-06-18T10:22:29.659651,+0.15,-0.12,-0.89,51.5407673,-0.01398
2026-06-18T10:22:29.719253,+0.10,-0.28,-1.49,51.5407673,-0.01398
2026-06-18T10:22:29.779058,+0.26,-0.42,-0.68,51.5407673,-0.01398
2026-06-18T10:22:29.869578,+0.10,-0.12,-1.04,51.5407901,-0.014006
2026-06-18T10:22:29.927117,+0.09,-0.00,-0.95,51.5407901,-0.014006
2026-06-18T10:22:29.987824,+0.21,-0.34,-1.15,51.5407901,-0.014006
2026-06-18T10:22:30.049453,+0.12,-0.19,-1.18,51.5407901,-0.014006
2026-06-18T10:22:30.112140,+0.16,-0.23,-0.87,51.5407901,-0.014006
2026-06-18T10:22:30.199488,+0.21,-0.25,-0.66,51.5407901,-0.014006
2026-06-18T10:22:30.258806,+0.04,-0.08,-1.29,51.5407901,-0.014006
2026-06-18T10:22:30.315803,+0.20,-0.15,-1.09,51.5407901,-0.014006
2026-06-18T10:22:30.376177,+0.13,-0.15,-0.97,51.5407901,-0.014006
2026-06-18T10:22:30.436427,+0.11,-0.10,-0.83,51.5407901,-0.014006
2026-06-18T10:22:30.532047,+0.35,-0.48,-0.88,51.5407901,-0.014006
2026-06-18T10:22:30.588888,+0.18,-0.12,-1.14,51.5407901,-0.014006
2026-06-18T10:22:30.646008,+0.16,-0.22,-0.78,51.5407901,-0.014006
2026-06-18T10:22:30.708989,+0.12,-0.09,-1.16,51.5407901,-0.014006
2026-06-18T10:22:30.773674,+0.05,-0.04,-1.16,51.5407901,-0.014006
2026-06-18T10:22:30.858757,+0.13,-0.21,-0.90,51.5408168,-0.014039
2026-06-18T10:22:30.919473,+0.16,-0.12,-0.91,51.5408168,-0.014039
2026-06-18T10:22:30.979673,+0.25,-0.10,-1.19,51.5408168,-0.014039
2026-06-18T10:22:31.038177,+0.14,-0.18,-1.09,51.5408168,-0.014039
2026-06-18T10:22:31.131689,+0.20,-0.28,-0.97,51.5408168,-0.014039
2026-06-18T10:22:31.190501,+0.13,-0.15,-0.94,51.5408168,-0.014039
2026-06-18T10:22:31.251806,+0.15,-0.24,-0.96,51.5408168,-0.014039
2026-06-18T10:22:31.310249,+0.16,-0.16,-1.09,51.5408168,-0.014039
2026-06-18T10:22:31.371801,+0.20,-0.28,-0.89,51.5408168,-0.014039
2026-06-18T10:22:31.459111,+0.10,-0.16,-0.93,51.5408168,-0.014039
2026-06-18T10:22:31.523179,-0.06,+0.05,-1.22,51.5408168,-0.014039
2026-06-18T10:22:31.579930,+0.04,-0.25,-1.25,51.5408168,-0.014039
2026-06-18T10:22:31.637972,+0.13,-0.03,-0.86,51.5408168,-0.014039
2026-06-18T10:22:31.703781,+0.11,-0.16,-1.25,51.5408168,-0.014039
2026-06-18T10:22:31.786586,+0.22,-0.25,-0.88,51.5408458,-0.0140703
2026-06-18T10:22:31.850357,+0.21,-0.24,-1.06,51.5408458,-0.0140703
2026-06-18T10:22:31.907521,+0.02,+0.06,-1.12,51.5408458,-0.0140703
2026-06-18T10:22:31.965803,+0.14,-0.17,-1.17,51.5408458,-0.0140703
2026-06-18T10:22:32.028168,+0.14,-0.11,-0.97,51.5408458,-0.0140703
2026-06-18T10:22:32.121944,+0.04,-0.22,-1.05,51.5408458,-0.0140703
2026-06-18T10:22:32.180685,+0.26,-0.23,-0.92,51.5408458,-0.0140703
2026-06-18T10:22:32.238905,+0.02,-0.05,-1.14,51.5408458,-0.0140703
2026-06-18T10:22:32.300738,+0.07,-0.13,-1.15,51.5408458,-0.0140703
2026-06-18T10:22:32.360049,+0.17,-0.19,-0.85,51.5408458,-0.0140703
2026-06-18T10:22:32.452252,+0.14,-0.10,-0.96,51.5408458,-0.0140703
2026-06-18T10:22:32.512879,+0.28,-0.33,-0.83,51.5408458,-0.0140703
2026-06-18T10:22:32.570666,+0.13,-0.14,-1.07,51.5408458,-0.0140703
2026-06-18T10:22:32.635188,+0.13,-0.11,-0.69,51.5408458,-0.0140703
2026-06-18T10:22:32.687228,+0.24,-0.33,-0.95,51.5408458,-0.0140703
2026-06-18T10:22:32.777303,+0.10,-0.03,-1.07,51.5408458,-0.0140703
2026-06-18T10:22:32.836924,+0.05,-0.15,-1.09,51.5408746,-0.0141116
2026-06-18T10:22:32.898693,+0.10,-0.05,-0.78,51.5408746,-0.0141116
2026-06-18T10:22:32.959747,+0.26,-0.34,-0.99,51.5408746,-0.0141116
2026-06-18T10:22:33.050067,+0.10,-0.14,-1.07,51.5408746,-0.0141116
2026-06-18T10:22:33.106350,+0.15,-0.21,-0.93,51.5408746,-0.0141116
2026-06-18T10:22:33.168065,+0.22,-0.25,-1.02,51.5408746,-0.0141116
2026-06-18T10:22:33.226437,+0.03,+0.02,-0.95,51.5408746,-0.0141116
2026-06-18T10:22:33.288757,+0.06,-0.15,-1.13,51.5408746,-0.0141116
2026-06-18T10:22:33.380586,+0.18,-0.16,-1.05,51.5408746,-0.0141116
2026-06-18T10:22:33.439409,+0.15,-0.16,-0.99,51.5408746,-0.0141116
2026-06-18T10:22:33.500324,+0.14,-0.16,-0.92,51.5408746,-0.0141116
2026-06-18T10:22:33.561479,+0.15,-0.19,-0.92,51.5408746,-0.0141116
2026-06-18T10:22:33.619186,+0.17,-0.10,-0.98,51.5408746,-0.0141116
2026-06-18T10:22:33.711447,+0.15,-0.12,-0.96,51.5408746,-0.0141116
2026-06-18T10:22:33.771952,+0.15,-0.20,-0.95,51.5408746,-0.0141116
2026-06-18T10:22:33.828519,+0.12,-0.14,-1.01,51.5409034,-0.0141667
2026-06-18T10:22:33.890140,+0.13,-0.08,-0.95,51.5409034,-0.0141667
2026-06-18T10:22:33.946762,+0.15,-0.16,-0.86,51.5409034,-0.0141667
2026-06-18T10:22:34.038628,+0.08,-0.11,-0.94,51.5409034,-0.0141667
2026-06-18T10:22:34.098126,+0.11,-0.10,-1.04,51.5409034,-0.0141667
2026-06-18T10:22:34.159506,+0.16,-0.22,-0.86,51.5409034,-0.0141667
2026-06-18T10:22:34.221998,+0.12,-0.22,-0.94,51.5409034,-0.0141667
2026-06-18T10:22:34.280350,+0.11,-0.18,-0.92,51.5409034,-0.0141667
2026-06-18T10:22:34.372985,+0.14,-0.15,-0.96,51.5409034,-0.0141667
2026-06-18T10:22:34.429404,+0.19,-0.16,-0.93,51.5409034,-0.0141667
2026-06-18T10:22:34.489621,+0.15,-0.24,-0.85,51.5409034,-0.0141667
2026-06-18T10:22:34.549307,+0.12,-0.13,-0.99,51.5409034,-0.0141667
2026-06-18T10:22:34.608684,+0.10,-0.15,-1.00,51.5409034,-0.0141667
2026-06-18T10:22:34.700099,+0.19,-0.20,-0.97,51.5409034,-0.0141667
2026-06-18T10:22:34.759306,+0.12,-0.15,-0.95,51.5409034,-0.0141667
2026-06-18T10:22:34.815766,+0.18,-0.16,-0.81,51.540932,-0.0142227
2026-06-18T10:22:34.879495,+0.14,-0.11,-1.07,51.540932,-0.0142227
2026-06-18T10:22:34.937819,+0.29,-0.19,-0.89,51.540932,-0.0142227
2026-06-18T10:22:35.030842,+0.07,-0.07,-1.01,51.540932,-0.0142227
2026-06-18T10:22:35.086992,+0.16,-0.08,-1.09,51.540932,-0.0142227
2026-06-18T10:22:35.150792,+0.10,-0.19,-0.88,51.540932,-0.0142227
2026-06-18T10:22:35.211499,+0.14,-0.19,-0.89,51.540932,-0.0142227
2026-06-18T10:22:35.301673,+0.16,-0.23,-0.88,51.540932,-0.0142227
2026-06-18T10:22:35.359198,+0.16,-0.10,-0.93,51.540932,-0.0142227
2026-06-18T10:22:35.420236,+0.10,-0.05,-0.99,51.540932,-0.0142227
2026-06-18T10:22:35.479467,+0.04,-0.14,-1.13,51.540932,-0.0142227
2026-06-18T10:22:35.540604,+0.19,-0.28,-0.86,51.540932,-0.0142227
2026-06-18T10:22:35.631808,+0.09,-0.09,-1.09,51.540932,-0.0142227
2026-06-18T10:22:35.690656,+0.32,-0.19,-1.10,51.540932,-0.0142227
2026-06-18T10:22:35.749958,+0.23,-0.26,-0.84,51.540932,-0.0142227
2026-06-18T10:22:35.806373,+0.00,+0.08,-1.16,51.5409589,-0.014268
2026-06-18T10:22:35.869179,+0.18,-0.20,-0.98,51.5409589,-0.014268
2026-06-18T10:22:35.959995,+0.14,-0.10,-1.07,51.5409589,-0.014268
2026-06-18T10:22:36.017750,+0.11,-0.06,-1.19,51.5409589,-0.014268
2026-06-18T10:22:36.081518,+0.10,-0.16,-0.97,51.5409589,-0.014268
2026-06-18T10:22:36.141212,+0.16,-0.21,-1.07,51.5409589,-0.014268
2026-06-18T10:22:36.201717,+0.16,-0.22,-0.88,51.5409589,-0.014268
2026-06-18T10:22:36.290761,+0.22,-0.27,-0.80,51.5409589,-0.014268
2026-06-18T10:22:36.346113,+0.09,-0.10,-1.04,51.5409589,-0.014268
2026-06-18T10:22:36.408551,+0.02,-0.00,-1.10,51.5409589,-0.014268
2026-06-18T10:22:36.470383,+0.08,-0.07,-0.90,51.5409589,-0.014268
2026-06-18T10:22:36.529611,+0.11,-0.09,-1.06,51.5409589,-0.014268
2026-06-18T10:22:36.619761,+0.12,-0.24,-1.18,51.5409589,-0.014268
2026-06-18T10:22:36.678264,+0.12,-0.13,-0.96,51.5409589,-0.014268
2026-06-18T10:22:36.740763,+0.13,-0.06,-0.62,51.5409589,-0.014268
2026-06-18T10:22:36.795968,+0.16,-0.15,-1.05,51.5409868,-0.014312
2026-06-18T10:22:36.858454,+0.14,-0.16,-1.06,51.5409868,-0.014312
2026-06-18T10:22:36.948239,+0.16,-0.13,-1.01,51.5409868,-0.014312
2026-06-18T10:22:37.007140,+0.11,-0.16,-0.82,51.5409868,-0.014312
2026-06-18T10:22:37.067379,+0.17,-0.17,-1.21,51.5409868,-0.014312
2026-06-18T10:22:37.128385,+0.14,-0.27,-1.04,51.5409868,-0.014312
2026-06-18T10:22:37.218644,+0.12,-0.20,-0.97,51.5409868,-0.014312
2026-06-18T10:22:37.279755,+0.15,-0.22,-0.88,51.5409868,-0.014312
2026-06-18T10:22:37.339197,+0.15,-0.29,-1.03,51.5409868,-0.014312
2026-06-18T10:22:37.401515,+0.11,-0.18,-1.08,51.5409868,-0.014312
2026-06-18T10:22:37.457197,+0.16,-0.25,-0.85,51.5409868,-0.014312
2026-06-18T10:22:37.548836,+0.17,-0.18,-1.06,51.5409868,-0.014312
2026-06-18T10:22:37.609080,+0.14,-0.08,-0.97,51.5409868,-0.014312
2026-06-18T10:22:37.668670,+0.21,-0.15,-0.92,51.5409868,-0.014312
2026-06-18T10:22:37.731177,+0.16,-0.08,-0.97,51.5409868,-0.014312
2026-06-18T10:22:37.785947,+0.22,-0.17,-0.96,51.5409868,-0.014312
2026-06-18T10:22:37.877339,+0.13,-0.14,-1.09,51.5410152,-0.0143514
2026-06-18T10:22:37.969193,+0.14,-0.21,-0.84,51.5410152,-0.0143514
2026-06-18T10:22:37.997080,+0.21,-0.20,-0.94,51.5410152,-0.0143514
2026-06-18T10:22:38.060546,+0.11,-0.12,-1.16,51.5410152,-0.0143514
2026-06-18T10:22:38.120821,+0.13,-0.12,-0.91,51.5410152,-0.0143514
2026-06-18T10:22:38.211542,+0.15,-0.11,-0.86,51.5410152,-0.0143514
2026-06-18T10:22:38.302641,+0.19,-0.15,-1.08,51.5410152,-0.0143514
2026-06-18T10:22:38.329993,+0.21,-0.28,-0.81,51.5410152,-0.0143514
2026-06-18T10:22:38.390336,+0.12,-0.17,-0.94,51.5410152,-0.0143514
2026-06-18T10:22:38.451026,+0.15,-0.23,-0.91,51.5410152,-0.0143514
2026-06-18T10:22:38.541678,+0.12,-0.08,-0.94,51.5410152,-0.0143514
2026-06-18T10:22:38.599082,+0.16,-0.23,-1.07,51.5410152,-0.0143514
2026-06-18T10:22:38.659277,+0.07,-0.09,-0.81,51.5410152,-0.0143514
2026-06-18T10:22:38.719838,+0.05,-0.04,-1.09,51.5410152,-0.0143514
2026-06-18T10:22:38.778340,+0.13,-0.13,-0.93,51.5410152,-0.0143514
2026-06-18T10:22:38.868268,+0.14,-0.19,-0.86,51.5410426,-0.0143838
2026-06-18T10:22:38.927693,+0.20,-0.18,-0.98,51.5410426,-0.0143838
2026-06-18T10:22:38.990409,+0.16,-0.17,-0.97,51.5410426,-0.0143838
2026-06-18T10:22:39.051782,+0.16,-0.12,-1.18,51.5410426,-0.0143838
2026-06-18T10:22:39.141064,-0.26,+0.11,-1.78,51.5410426,-0.0143838
2026-06-18T10:22:39.196450,-0.03,-0.08,-1.24,51.5410426,-0.0143838
2026-06-18T10:22:39.262340,+0.15,-0.09,-1.02,51.5410426,-0.0143838
2026-06-18T10:22:39.319678,+0.13,-0.26,-1.05,51.5410426,-0.0143838
2026-06-18T10:22:39.405900,+0.32,-0.42,-0.82,51.5410426,-0.0143838
2026-06-18T10:22:39.469333,+0.11,-0.20,-0.95,51.5410426,-0.0143838
2026-06-18T10:22:39.531600,+0.11,-0.24,-0.92,51.5410426,-0.0143838
2026-06-18T10:22:39.591782,+0.19,-0.21,-0.96,51.5410426,-0.0143838
2026-06-18T10:22:39.649028,+0.23,-0.13,-1.00,51.5410426,-0.0143838
2026-06-18T10:22:39.742306,+0.11,-0.11,-1.00,51.5410426,-0.0143838
2026-06-18T10:22:39.798464,+0.05,-0.06,-1.02,51.5410665,-0.0144117
2026-06-18T10:22:39.860310,+0.15,-0.18,-1.02,51.5410665,-0.0144117
2026-06-18T10:22:39.918697,+0.19,-0.31,-0.93,51.5410665,-0.0144117
2026-06-18T10:22:39.978112,+0.19,-0.18,-0.88,51.5410665,-0.0144117
2026-06-18T10:22:40.068069,+0.10,-0.13,-0.92,51.5410665,-0.0144117
2026-06-18T10:22:40.126024,+0.20,-0.16,-1.01,51.5410665,-0.0144117
2026-06-18T10:22:40.189206,+0.10,-0.15,-1.06,51.5410665,-0.0144117
2026-06-18T10:22:40.250577,+0.14,-0.13,-1.00,51.5410665,-0.0144117
2026-06-18T10:22:40.309547,+0.07,-0.04,-0.98,51.5410665,-0.0144117
2026-06-18T10:22:40.401612,+0.13,-0.24,-0.95,51.5410665,-0.0144117
2026-06-18T10:22:40.456824,+0.14,-0.13,-0.96,51.5410665,-0.0144117
2026-06-18T10:22:40.522565,+0.11,-0.16,-0.94,51.5410665,-0.0144117
2026-06-18T10:22:40.576783,+0.19,-0.25,-0.80,51.5410665,-0.0144117
2026-06-18T10:22:40.638482,+0.07,-0.05,-1.05,51.5410665,-0.0144117
2026-06-18T10:22:40.731252,+0.23,-0.28,-0.88,51.5410665,-0.0144117
2026-06-18T10:22:40.786284,+0.13,-0.14,-0.80,51.5410665,-0.0144117
2026-06-18T10:22:40.847666,+0.06,-0.11,-0.85,51.5410932,-0.0144449
2026-06-18T10:22:40.908531,+0.09,-0.12,-0.97,51.5410932,-0.0144449
2026-06-18T10:22:40.969635,+0.23,-0.10,-1.01,51.5410932,-0.0144449
2026-06-18T10:22:41.060586,+0.22,-0.16,-0.82,51.5410932,-0.0144449
2026-06-18T10:22:41.120444,+0.22,-0.13,-0.89,51.5410932,-0.0144449
2026-06-18T10:22:41.180495,+0.20,-0.13,-1.05,51.5410932,-0.0144449
2026-06-18T10:22:41.238463,+0.12,-0.14,-0.95,51.5410932,-0.0144449
2026-06-18T10:22:41.334541,+0.17,-0.19,-0.90,51.5410932,-0.0144449
2026-06-18T10:22:41.386417,+0.06,-0.04,-1.09,51.5410932,-0.0144449
2026-06-18T10:22:41.450217,+0.09,-0.28,-1.01,51.5410932,-0.0144449
2026-06-18T10:22:41.510439,+0.16,-0.24,-0.98,51.5410932,-0.0144449
2026-06-18T10:22:41.568360,+0.03,-0.12,-1.12,51.5410932,-0.0144449
2026-06-18T10:22:41.659448,+0.13,-0.20,-1.00,51.5410932,-0.0144449
2026-06-18T10:22:41.719741,+0.15,-0.14,-0.96,51.5410932,-0.0144449
2026-06-18T10:22:41.780708,+0.12,-0.15,-1.07,51.5410932,-0.0144449
2026-06-18T10:22:41.836616,+0.17,-0.18,-1.02,51.541117,-0.0144897
2026-06-18T10:22:41.897135,+0.10,-0.14,-0.99,51.541117,-0.0144897
2026-06-18T10:22:41.986310,+0.18,-0.18,-1.03,51.541117,-0.0144897
2026-06-18T10:22:42.050381,+0.25,-0.31,-0.91,51.541117,-0.0144897
2026-06-18T10:22:42.110186,+0.21,-0.12,-0.91,51.541117,-0.0144897
2026-06-18T10:22:42.169751,+0.25,-0.09,-1.10,51.541117,-0.0144897
2026-06-18T10:22:42.232263,+0.18,-0.18,-0.85,51.541117,-0.0144897
2026-06-18T10:22:42.320658,+0.25,-0.31,-0.94,51.541117,-0.0144897
2026-06-18T10:22:42.378399,+0.17,-0.14,-0.85,51.541117,-0.0144897
2026-06-18T10:22:42.439153,+0.14,-0.10,-1.05,51.541117,-0.0144897
2026-06-18T10:22:42.500542,+0.13,-0.19,-0.85,51.541117,-0.0144897
2026-06-18T10:22:42.561102,+0.17,-0.20,-1.06,51.541117,-0.0144897
2026-06-18T10:22:42.651237,+0.03,-0.15,-0.83,51.541117,-0.0144897
2026-06-18T10:22:42.709679,+0.22,-0.33,-0.81,51.541117,-0.0144897
2026-06-18T10:22:42.769074,+0.06,-0.01,-1.03,51.541117,-0.0144897
2026-06-18T10:22:42.830983,+0.11,-0.19,-1.00,51.5411401,-0.0145407
2026-06-18T10:22:42.886084,+0.13,-0.07,-0.90,51.5411401,-0.0145407
2026-06-18T10:22:42.979133,+0.06,-0.05,-0.94,51.5411401,-0.0145407
2026-06-18T10:22:43.040366,+0.27,-0.27,-0.89,51.5411401,-0.0145407
2026-06-18T10:22:43.100225,+0.09,-0.08,-0.99,51.5411401,-0.0145407
2026-06-18T10:22:43.164872,+0.15,-0.18,-0.92,51.5411401,-0.0145407
2026-06-18T10:22:43.220451,+0.23,-0.26,-0.78,51.5411401,-0.0145407
2026-06-18T10:22:43.310296,+0.24,-0.18,-0.97,51.5411401,-0.0145407
2026-06-18T10:22:43.370853,+0.17,-0.20,-0.94,51.5411401,-0.0145407
2026-06-18T10:22:43.429469,+0.13,-0.15,-0.93,51.5411401,-0.0145407
2026-06-18T10:22:43.490266,+0.15,-0.05,-0.80,51.5411401,-0.0145407
2026-06-18T10:22:43.580163,+0.07,-0.15,-0.87,51.5411401,-0.0145407
2026-06-18T10:22:43.639021,+0.11,-0.15,-1.02,51.5411401,-0.0145407
2026-06-18T10:22:43.699475,+0.19,-0.26,-1.05,51.5411401,-0.0145407
2026-06-18T10:22:43.757976,+0.15,-0.20,-0.83,51.5411401,-0.0145407
2026-06-18T10:22:43.816761,+0.05,-0.09,-0.95,51.5411645,-0.0145867
2026-06-18T10:22:43.905834,+0.18,-0.23,-0.81,51.5411645,-0.0145867
2026-06-18T10:22:43.966279,+0.08,-0.10,-1.13,51.5411645,-0.0145867
2026-06-18T10:22:44.025962,+0.09,-0.17,-0.90,51.5411645,-0.0145867
2026-06-18T10:22:44.088375,+0.21,-0.19,-0.94,51.5411645,-0.0145867
2026-06-18T10:22:44.153088,+0.10,-0.14,-0.84,51.5411645,-0.0145867
2026-06-18T10:22:44.239671,+0.22,-0.18,-0.91,51.5411645,-0.0145867
2026-06-18T10:22:44.301203,+0.12,-0.11,-1.13,51.5411645,-0.0145867
2026-06-18T10:22:44.361518,+0.16,-0.19,-1.01,51.5411645,-0.0145867
2026-06-18T10:22:44.418843,+0.16,-0.13,-0.91,51.5411645,-0.0145867
2026-06-18T10:22:44.482544,-0.00,+0.12,-1.11,51.5411645,-0.0145867
2026-06-18T10:22:44.568752,+0.23,-0.20,-0.97,51.5411645,-0.0145867
2026-06-18T10:22:44.628001,+0.16,-0.22,-1.07,51.5411645,-0.0145867
2026-06-18T10:22:44.690156,+0.13,-0.21,-0.55,51.5411645,-0.0145867
2026-06-18T10:22:44.779482,+0.19,-0.28,-0.88,51.5411645,-0.0145867
2026-06-18T10:22:44.806924,+0.03,-0.07,-1.00,51.5411895,-0.0146296
2026-06-18T10:22:44.899760,+0.27,-0.35,-1.00,51.5411895,-0.0146296
2026-06-18T10:22:44.959817,+0.09,-0.02,-0.79,51.5411895,-0.0146296
2026-06-18T10:22:45.021623,+0.12,-0.05,-0.77,51.5411895,-0.0146296
2026-06-18T10:22:45.077462,+0.13,-0.12,-1.02,51.5411895,-0.0146296
2026-06-18T10:22:45.140826,+0.13,-0.18,-0.94,51.5411895,-0.0146296
2026-06-18T10:22:45.230877,+0.17,-0.12,-0.99,51.5411895,-0.0146296
2026-06-18T10:22:45.290433,+0.10,-0.09,-0.92,51.5411895,-0.0146296
2026-06-18T10:22:45.350724,+0.21,-0.24,-0.90,51.5411895,-0.0146296
2026-06-18T10:22:45.410156,+0.18,-0.23,-1.02,51.5411895,-0.0146296
2026-06-18T10:22:45.503443,+0.13,-0.15,-1.02,51.5411895,-0.0146296
2026-06-18T10:22:45.560822,+0.11,-0.05,-1.02,51.5411895,-0.0146296
2026-06-18T10:22:45.620531,+0.11,-0.13,-1.07,51.5411895,-0.0146296
2026-06-18T10:22:45.677863,+0.16,-0.22,-0.93,51.5411895,-0.0146296
2026-06-18T10:22:45.740602,+0.16,-0.23,-0.93,51.5411895,-0.0146296
2026-06-18T10:22:45.827271,+0.05,-0.14,-1.14,51.5412132,-0.0146718
2026-06-18T10:22:45.887606,+0.21,-0.25,-0.91,51.5412132,-0.0146718
2026-06-18T10:22:45.948572,+0.23,-0.24,-0.94,51.5412132,-0.0146718
2026-06-18T10:22:46.007641,+0.12,-0.08,-1.06,51.5412132,-0.0146718
2026-06-18T10:22:46.069502,+0.16,-0.11,-0.62,51.5412132,-0.0146718
2026-06-18T10:22:46.160298,+0.19,-0.12,-1.00,51.5412132,-0.0146718
2026-06-18T10:22:46.219738,+0.19,-0.15,-0.97,51.5412132,-0.0146718
2026-06-18T10:22:46.280606,+0.16,-0.21,-0.90,51.5412132,-0.0146718
2026-06-18T10:22:46.340452,+0.21,-0.25,-0.80,51.5412132,-0.0146718
2026-06-18T10:22:46.401496,+0.12,-0.19,-1.08,51.5412132,-0.0146718
2026-06-18T10:22:46.490982,+0.18,-0.13,-0.96,51.5412132,-0.0146718
2026-06-18T10:22:46.551512,+0.07,-0.10,-0.99,51.5412132,-0.0146718
2026-06-18T10:22:46.607758,+0.13,-0.05,-1.08,51.5412132,-0.0146718
2026-06-18T10:22:46.670817,+0.21,-0.18,-0.90,51.5412132,-0.0146718
2026-06-18T10:22:46.730457,+0.24,-0.28,-1.00,51.5412132,-0.0146718
2026-06-18T10:22:46.817349,+0.17,-0.18,-1.01,51.541237,-0.014709
2026-06-18T10:22:46.880796,+0.13,-0.18,-0.99,51.541237,-0.014709
2026-06-18T10:22:46.939631,+0.11,-0.02,-0.95,51.541237,-0.014709
2026-06-18T10:22:46.997464,+0.15,-0.15,-0.98,51.541237,-0.014709
2026-06-18T10:22:47.061031,+0.19,-0.18,-1.01,51.541237,-0.014709
2026-06-18T10:22:47.151379,+0.17,-0.17,-1.06,51.541237,-0.014709
2026-06-18T10:22:47.212102,+0.13,-0.05,-0.99,51.541237,-0.014709
2026-06-18T10:22:47.271082,+0.19,-0.18,-0.88,51.541237,-0.014709
2026-06-18T10:22:47.331680,+0.17,-0.15,-0.82,51.541237,-0.014709
2026-06-18T10:22:47.420534,+0.16,-0.20,-0.92,51.541237,-0.014709
2026-06-18T10:22:47.478468,+0.19,-0.21,-1.17,51.541237,-0.014709
2026-06-18T10:22:47.537393,+0.08,-0.03,-0.96,51.541237,-0.014709
2026-06-18T10:22:47.598190,+0.02,-0.08,-1.12,51.541237,-0.014709
2026-06-18T10:22:47.660421,-0.03,+0.01,-1.14,51.541237,-0.014709
2026-06-18T10:22:47.749856,+0.13,-0.20,-0.94,51.541237,-0.014709
2026-06-18T10:22:47.809093,+0.24,-0.24,-0.76,51.5412621,-0.0147422
2026-06-18T10:22:47.870877,+0.22,-0.30,-1.10,51.5412621,-0.0147422
2026-06-18T10:22:47.931055,+0.11,-0.19,-1.06,51.5412621,-0.0147422
2026-06-18T10:22:47.988455,+0.17,-0.24,-0.94,51.5412621,-0.0147422
2026-06-18T10:22:48.080037,+0.18,-0.18,-0.85,51.5412621,-0.0147422
2026-06-18T10:22:48.140500,+0.17,-0.17,-1.17,51.5412621,-0.0147422
2026-06-18T10:22:48.199078,+0.13,-0.11,-0.93,51.5412621,-0.0147422
2026-06-18T10:22:48.256938,+0.17,-0.16,-0.99,51.5412621,-0.0147422
2026-06-18T10:22:48.320308,+0.20,-0.17,-0.89,51.5412621,-0.0147422
2026-06-18T10:22:48.405702,+0.25,-0.24,-0.96,51.5412621,-0.0147422
2026-06-18T10:22:48.470024,+0.05,-0.17,-1.05,51.5412621,-0.0147422
2026-06-18T10:22:48.531830,+0.02,-0.15,-1.14,51.5412621,-0.0147422
2026-06-18T10:22:48.591941,+0.17,-0.20,-0.96,51.5412621,-0.0147422
2026-06-18T10:22:48.647410,+0.17,-0.25,-0.92,51.5412621,-0.0147422
2026-06-18T10:22:48.742177,+0.12,-0.06,-0.89,51.5412621,-0.0147422
2026-06-18T10:22:48.796152,+0.21,-0.17,-0.98,51.5412898,-0.0147745
2026-06-18T10:22:48.860306,+0.15,-0.14,-1.04,51.5412898,-0.0147745
2026-06-18T10:22:48.919667,+0.20,-0.20,-0.87,51.5412898,-0.0147745
2026-06-18T10:22:48.979369,+0.17,-0.12,-0.81,51.5412898,-0.0147745
2026-06-18T10:22:49.072555,+0.09,-0.07,-0.95,51.5412898,-0.0147745
2026-06-18T10:22:49.130732,+0.27,-0.33,-1.03,51.5412898,-0.0147745
2026-06-18T10:22:49.189569,+0.15,-0.09,-1.04,51.5412898,-0.0147745
2026-06-18T10:22:49.250927,+0.06,-0.06,-0.87,51.5412898,-0.0147745
2026-06-18T10:22:49.310721,+0.11,-0.12,-0.99,51.5412898,-0.0147745
2026-06-18T10:22:49.399590,+0.19,-0.18,-0.61,51.5412898,-0.0147745
2026-06-18T10:22:49.459231,+0.18,-0.09,-1.24,51.5412898,-0.0147745
2026-06-18T10:22:49.516243,+0.10,-0.09,-1.11,51.5412898,-0.0147745
2026-06-18T10:22:49.608270,+0.27,-0.37,-0.86,51.5412898,-0.0147745
2026-06-18T10:22:49.668713,+0.09,-0.07,-1.06,51.5412898,-0.0147745
2026-06-18T10:22:49.729837,-0.05,-0.01,-1.18,51.5412898,-0.0147745
2026-06-18T10:22:49.785947,+0.28,-0.26,-0.62,51.5412898,-0.0147745
2026-06-18T10:22:49.846355,-0.02,+0.05,-0.96,51.5413151,-0.0148068
2026-06-18T10:22:49.938527,+0.17,-0.32,-1.01,51.5413151,-0.0148068
2026-06-18T10:22:49.998297,+0.25,-0.30,-0.95,51.5413151,-0.0148068
2026-06-18T10:22:50.061347,+0.08,-0.12,-0.85,51.5413151,-0.0148068
2026-06-18T10:22:50.118753,+0.17,-0.21,-0.88,51.5413151,-0.0148068
2026-06-18T10:22:50.175764,+0.14,-0.06,-0.92,51.5413151,-0.0148068
2026-06-18T10:22:50.270608,+0.28,-0.25,-1.08,51.5413151,-0.0148068
2026-06-18T10:22:50.327549,+0.10,-0.10,-1.07,51.5413151,-0.0148068
2026-06-18T10:22:50.392322,+0.18,-0.22,-0.90,51.5413151,-0.0148068
2026-06-18T10:22:50.448697,+0.14,-0.18,-0.99,51.5413151,-0.0148068
2026-06-18T10:22:50.510388,+0.09,-0.13,-1.08,51.5413151,-0.0148068
2026-06-18T10:22:50.600591,+0.19,-0.19,-1.01,51.5413151,-0.0148068
2026-06-18T10:22:50.657037,+0.13,-0.12,-0.94,51.5413151,-0.0148068
2026-06-18T10:22:50.718559,+0.29,-0.34,-1.16,51.5413151,-0.0148068
2026-06-18T10:22:50.780591,+0.10,-0.08,-0.89,51.5413151,-0.0148068
2026-06-18T10:22:50.836974,+0.13,-0.16,-1.11,51.5413336,-0.0148327
2026-06-18T10:22:50.895823,+0.18,-0.06,-0.81,51.5413336,-0.0148327
2026-06-18T10:22:50.986144,+0.14,-0.19,-1.07,51.5413336,-0.0148327
2026-06-18T10:22:51.048330,+0.15,-0.24,-1.09,51.5413336,-0.0148327
2026-06-18T10:22:51.111085,+0.03,-0.02,-1.10,51.5413336,-0.0148327
2026-06-18T10:22:51.170284,+0.13,-0.15,-0.88,51.5413336,-0.0148327
2026-06-18T10:22:51.260866,+0.17,-0.24,-1.01,51.5413336,-0.0148327
2026-06-18T10:22:51.318788,+0.22,-0.24,-1.13,51.5413336,-0.0148327
2026-06-18T10:22:51.381147,+0.14,-0.21,-0.93,51.5413336,-0.0148327
2026-06-18T10:22:51.439294,+0.09,-0.12,-1.21,51.5413336,-0.0148327
2026-06-18T10:22:51.531029,+0.14,-0.13,-1.04,51.5413336,-0.0148327
2026-06-18T10:22:51.588407,+0.12,-0.18,-1.06,51.5413336,-0.0148327
2026-06-18T10:22:51.650710,+0.17,-0.22,-0.91,51.5413336,-0.0148327
2026-06-18T10:22:51.708863,+0.15,-0.15,-1.20,51.5413336,-0.0148327
2026-06-18T10:22:51.766401,+0.20,-0.24,-0.88,51.5413336,-0.0148327
2026-06-18T10:22:51.858786,+0.10,-0.10,-1.16,51.5413528,-0.0148633
2026-06-18T10:22:51.920412,+0.11,-0.00,-0.93,51.5413528,-0.0148633
2026-06-18T10:22:51.980218,+0.15,-0.20,-0.81,51.5413528,-0.0148633
2026-06-18T10:22:52.046863,+0.21,-0.20,-0.83,51.5413528,-0.0148633
2026-06-18T10:22:52.097058,+0.17,-0.22,-0.97,51.5413528,-0.0148633
2026-06-18T10:22:52.191462,+0.14,-0.18,-0.97,51.5413528,-0.0148633
2026-06-18T10:22:52.247981,+0.16,-0.16,-0.84,51.5413528,-0.0148633
2026-06-18T10:22:52.311094,+0.23,-0.18,-0.89,51.5413528,-0.0148633
2026-06-18T10:22:52.369917,+0.16,-0.07,-1.07,51.5413528,-0.0148633
2026-06-18T10:22:52.429624,+0.08,-0.03,-0.93,51.5413528,-0.0148633
2026-06-18T10:22:52.516152,+0.08,-0.14,-0.99,51.5413528,-0.0148633
2026-06-18T10:22:52.578823,+0.16,-0.16,-1.00,51.5413528,-0.0148633
2026-06-18T10:22:52.669566,+0.17,-0.18,-0.86,51.5413528,-0.0148633
2026-06-18T10:22:52.695912,+0.14,-0.13,-1.04,51.5413528,-0.0148633
2026-06-18T10:22:52.757322,+0.17,-0.20,-0.91,51.5413528,-0.0148633
2026-06-18T10:22:52.845912,+0.12,-0.16,-0.96,51.5413777,-0.0149039
2026-06-18T10:22:52.908086,+0.12,-0.14,-0.93,51.5413777,-0.0149039
2026-06-18T10:22:52.966660,+0.20,-0.21,-0.97,51.5413777,-0.0149039
2026-06-18T10:22:53.028625,+0.02,-0.09,-1.03,51.5413777,-0.0149039
2026-06-18T10:22:53.089802,+0.08,-0.22,-0.99,51.5413777,-0.0149039
2026-06-18T10:22:53.179453,+0.23,-0.24,-0.95,51.5413777,-0.0149039
2026-06-18T10:22:53.240294,+0.07,-0.15,-0.99,51.5413777,-0.0149039
2026-06-18T10:22:53.299592,+0.19,-0.18,-1.04,51.5413777,-0.0149039
2026-06-18T10:22:53.359647,+0.19,-0.17,-1.05,51.5413777,-0.0149039
2026-06-18T10:22:53.425048,+0.06,-0.06,-1.05,51.5413777,-0.0149039
2026-06-18T10:22:53.510800,+0.12,-0.25,-0.97,51.5413777,-0.0149039
2026-06-18T10:22:53.571153,+0.18,-0.15,-1.05,51.5413777,-0.0149039
2026-06-18T10:22:53.632414,+0.12,-0.06,-1.13,51.5413777,-0.0149039
2026-06-18T10:22:53.690809,+0.14,-0.17,-0.91,51.5413777,-0.0149039
2026-06-18T10:22:53.780627,+0.24,-0.13,-0.94,51.5413777,-0.0149039
2026-06-18T10:22:53.837515,+0.18,-0.14,-0.98,51.5414025,-0.0149395
2026-06-18T10:22:53.900444,+0.17,-0.22,-1.04,51.5414025,-0.0149395
2026-06-18T10:22:53.961122,+0.13,-0.18,-1.00,51.5414025,-0.0149395
2026-06-18T10:22:54.019201,+0.15,-0.10,-0.97,51.5414025,-0.0149395
2026-06-18T10:22:54.112040,+0.10,-0.20,-0.99,51.5414025,-0.0149395
2026-06-18T10:22:54.168517,+0.18,-0.29,-0.91,51.5414025,-0.0149395
2026-06-18T10:22:54.231791,+0.12,-0.21,-0.94,51.5414025,-0.0149395
2026-06-18T10:22:54.289662,+0.11,-0.14,-1.04,51.5414025,-0.0149395
2026-06-18T10:22:54.350749,+0.19,-0.20,-0.93,51.5414025,-0.0149395
2026-06-18T10:22:54.438935,+0.07,+0.01,-1.06,51.5414025,-0.0149395
2026-06-18T10:22:54.501009,+0.16,-0.19,-0.97,51.5414025,-0.0149395
2026-06-18T10:22:54.560179,+0.11,-0.16,-1.02,51.5414025,-0.0149395
2026-06-18T10:22:54.619906,+0.11,-0.11,-1.05,51.5414025,-0.0149395
2026-06-18T10:22:54.681255,+0.13,-0.14,-1.10,51.5414025,-0.0149395
2026-06-18T10:22:54.769815,+0.20,-0.16,-0.96,51.5414025,-0.0149395
2026-06-18T10:22:54.829103,+0.19,-0.16,-1.00,51.5414324,-0.0149865
2026-06-18T10:22:54.890085,+0.17,-0.22,-1.03,51.5414324,-0.0149865
2026-06-18T10:22:54.946306,+0.14,-0.20,-1.04,51.5414324,-0.0149865
2026-06-18T10:22:55.009303,+0.12,-0.04,-0.93,51.5414324,-0.0149865
2026-06-18T10:22:55.101337,+0.10,-0.12,-1.08,51.5414324,-0.0149865
2026-06-18T10:22:55.162736,+0.13,-0.13,-0.93,51.5414324,-0.0149865
2026-06-18T10:22:55.220105,+0.16,-0.22,-1.14,51.5414324,-0.0149865
2026-06-18T10:22:55.280664,+0.16,-0.23,-0.95,51.5414324,-0.0149865
2026-06-18T10:22:55.339336,+0.11,-0.18,-1.23,51.5414324,-0.0149865
2026-06-18T10:22:55.432421,+0.15,-0.17,-0.90,51.5414324,-0.0149865
2026-06-18T10:22:55.487965,+0.11,-0.10,-1.08,51.5414324,-0.0149865
2026-06-18T10:22:55.549539,+0.14,-0.22,-0.89,51.5414324,-0.0149865
2026-06-18T10:22:55.611541,+0.23,-0.21,-1.08,51.5414324,-0.0149865
2026-06-18T10:22:55.700238,+0.18,-0.10,-1.14,51.5414324,-0.0149865
2026-06-18T10:22:55.760157,+0.25,-0.31,-0.73,51.5414324,-0.0149865
2026-06-18T10:22:55.817355,+0.12,+0.03,-0.97,51.5414609,-0.0150346
2026-06-18T10:22:55.880610,+0.14,-0.20,-0.88,51.5414609,-0.0150346
2026-06-18T10:22:55.938744,+0.07,-0.13,-1.09,51.5414609,-0.0150346
2026-06-18T10:22:56.028659,+0.11,-0.03,-0.91,51.5414609,-0.0150346
2026-06-18T10:22:56.090404,+0.21,-0.24,-0.92,51.5414609,-0.0150346
2026-06-18T10:22:56.150362,+0.14,-0.16,-0.86,51.5414609,-0.0150346
2026-06-18T10:22:56.212260,+0.11,-0.24,-1.07,51.5414609,-0.0150346
2026-06-18T10:22:56.270524,+0.17,-0.22,-0.98,51.5414609,-0.0150346
2026-06-18T10:22:56.358179,+0.21,-0.26,-0.88,51.5414609,-0.0150346
2026-06-18T10:22:56.419428,+0.10,-0.12,-1.02,51.5414609,-0.0150346
2026-06-18T10:22:56.480274,+0.16,-0.16,-0.85,51.5414609,-0.0150346
2026-06-18T10:22:56.541081,+0.09,-0.10,-1.11,51.5414609,-0.0150346
2026-06-18T10:22:56.600488,+0.03,-0.04,-1.04,51.5414609,-0.0150346
2026-06-18T10:22:56.691375,+0.20,-0.28,-0.99,51.5414609,-0.0150346
2026-06-18T10:22:56.750885,+0.19,-0.18,-0.93,51.5414609,-0.0150346
2026-06-18T10:22:56.806647,+0.15,-0.07,-1.20,51.5414835,-0.0150755
2026-06-18T10:22:56.869633,+0.20,-0.25,-0.80,51.5414835,-0.0150755
2026-06-18T10:22:56.930679,+0.13,-0.13,-1.00,51.5414835,-0.0150755
2026-06-18T10:22:57.021654,+0.17,-0.19,-0.89,51.5414835,-0.0150755
2026-06-18T10:22:57.108673,+0.16,-0.11,-0.93,51.5414835,-0.0150755
2026-06-18T10:22:57.137869,+0.19,-0.18,-1.00,51.5414835,-0.0150755
2026-06-18T10:22:57.201189,+0.18,-0.28,-0.89,51.5414835,-0.0150755
2026-06-18T10:22:57.261250,+0.13,-0.19,-1.13,51.5414835,-0.0150755
2026-06-18T10:22:57.352926,+0.15,-0.25,-0.85,51.5414835,-0.0150755
2026-06-18T10:22:57.407536,+0.17,-0.20,-1.03,51.5414835,-0.0150755
2026-06-18T10:22:57.470839,+0.16,-0.16,-0.92,51.5414835,-0.0150755
2026-06-18T10:22:57.528731,+0.16,-0.16,-0.98,51.5414835,-0.0150755
2026-06-18T10:22:57.616667,+0.20,-0.18,-0.88,51.5414835,-0.0150755
2026-06-18T10:22:57.681094,+0.16,-0.11,-0.88,51.5414835,-0.0150755
2026-06-18T10:22:57.738157,+0.16,-0.12,-0.87,51.5414835,-0.0150755
2026-06-18T10:22:57.795634,+0.20,-0.11,-0.99,51.5415097,-0.0151165
2026-06-18T10:22:57.919677,+0.21,-0.25,-0.88,51.5415097,-0.0151165
2026-06-18T10:22:57.946251,+0.17,-0.25,-0.79,51.5415097,-0.0151165
2026-06-18T10:22:58.012271,+0.16,-0.16,-0.68,51.5415097,-0.0151165
2026-06-18T10:22:58.070425,+0.04,-0.04,-1.03,51.5415097,-0.0151165
2026-06-18T10:22:58.129258,+0.15,-0.12,-1.13,51.5415097,-0.0151165
2026-06-18T10:22:58.187447,+0.26,-0.23,-0.77,51.5415097,-0.0151165
2026-06-18T10:22:58.277274,+0.17,-0.18,-0.87,51.5415097,-0.0151165
2026-06-18T10:22:58.337253,+0.10,-0.15,-0.86,51.5415097,-0.0151165
2026-06-18T10:22:58.398740,+0.09,-0.18,-1.18,51.5415097,-0.0151165
2026-06-18T10:22:58.457475,+0.18,-0.21,-1.03,51.5415097,-0.0151165
2026-06-18T10:22:58.517862,+0.03,-0.00,-1.00,51.5415097,-0.0151165
2026-06-18T10:22:58.607191,+0.18,-0.19,-0.92,51.5415097,-0.0151165
2026-06-18T10:22:58.669413,+0.08,-0.07,-0.96,51.5415097,-0.0151165
2026-06-18T10:22:58.729666,+0.18,-0.18,-0.91,51.5415097,-0.0151165
2026-06-18T10:22:58.786861,+0.26,-0.22,-0.85,51.5415097,-0.0151165
2026-06-18T10:22:58.849114,+0.19,-0.16,-1.00,51.5415388,-0.0151546
2026-06-18T10:22:58.937846,+0.19,-0.20,-0.96,51.5415388,-0.0151546
2026-06-18T10:22:58.999579,+0.11,-0.18,-0.89,51.5415388,-0.0151546
2026-06-18T10:22:59.057787,+0.12,-0.14,-1.00,51.5415388,-0.0151546
2026-06-18T10:22:59.120713,+0.07,+0.02,-0.87,51.5415388,-0.0151546
2026-06-18T10:22:59.211963,+0.16,-0.22,-0.97,51.5415388,-0.0151546
2026-06-18T10:22:59.267267,+0.14,-0.22,-0.97,51.5415388,-0.0151546
2026-06-18T10:22:59.328744,+0.16,-0.25,-0.95,51.5415388,-0.0151546
2026-06-18T10:22:59.388386,+0.13,-0.15,-1.03,51.5415388,-0.0151546
2026-06-18T10:22:59.446600,+0.12,-0.11,-0.92,51.5415388,-0.0151546
2026-06-18T10:22:59.507473,+0.20,-0.26,-1.06,51.5415388,-0.0151546
2026-06-18T10:22:59.600279,+0.11,-0.11,-0.95,51.5415388,-0.0151546
2026-06-18T10:22:59.660561,+0.12,-0.07,-0.78,51.5415388,-0.0151546
2026-06-18T10:22:59.719769,+0.19,-0.18,-0.98,51.5415388,-0.0151546
2026-06-18T10:22:59.805748,+0.19,-0.17,-0.96,51.5415388,-0.0151546
2026-06-18T10:22:59.869839,+0.21,-0.19,-0.94,51.5415628,-0.0151932
2026-06-18T10:22:59.932183,+0.21,-0.15,-0.83,51.5415628,-0.0151932
2026-06-18T10:22:59.988120,+0.25,-0.27,-1.03,51.5415628,-0.0151932
2026-06-18T10:23:00.048783,+0.15,-0.14,-1.03,51.5415628,-0.0151932
2026-06-18T10:23:00.138379,+0.08,-0.05,-1.03,51.5415628,-0.0151932
2026-06-18T10:23:00.200568,+0.15,-0.07,-0.90,51.5415628,-0.0151932
2026-06-18T10:23:00.259826,+0.11,-0.11,-0.95,51.5415628,-0.0151932
2026-06-18T10:23:00.319968,+0.15,-0.22,-1.11,51.5415628,-0.0151932
2026-06-18T10:23:00.378494,+0.16,-0.24,-0.79,51.5415628,-0.0151932
2026-06-18T10:23:00.470986,+0.12,-0.17,-0.86,51.5415628,-0.0151932
2026-06-18T10:23:00.528434,+0.14,-0.16,-1.00,51.5415628,-0.0151932
2026-06-18T10:23:00.589464,+0.12,-0.14,-1.12,51.5415628,-0.0151932
2026-06-18T10:23:00.649774,+0.13,-0.06,-1.00,51.5415628,-0.0151932
2026-06-18T10:23:00.707025,+0.11,-0.15,-0.69,51.5415628,-0.0151932
2026-06-18T10:23:00.797437,+0.20,-0.06,-0.96,51.5415628,-0.0151932
2026-06-18T10:23:00.864303,+0.16,-0.18,-1.04,51.5415882,-0.015236
2026-06-18T10:23:00.920664,+0.11,-0.13,-1.11,51.5415882,-0.015236
2026-06-18T10:23:00.980619,+0.15,-0.14,-0.73,51.5415882,-0.015236
2026-06-18T10:23:01.040046,+0.09,-0.02,-0.97,51.5415882,-0.015236
2026-06-18T10:23:01.128164,+0.06,-0.09,-1.16,51.5415882,-0.015236
2026-06-18T10:23:01.187777,+0.10,-0.18,-0.99,51.5415882,-0.015236
2026-06-18T10:23:01.248278,+0.18,-0.19,-0.87,51.5415882,-0.015236
2026-06-18T10:23:01.308234,+0.23,-0.22,-0.78,51.5415882,-0.015236
2026-06-18T10:23:01.367964,+0.11,-0.21,-1.13,51.5415882,-0.015236
2026-06-18T10:23:01.457646,+0.03,-0.09,-1.08,51.5415882,-0.015236
2026-06-18T10:23:01.516670,+0.10,-0.16,-1.06,51.5415882,-0.015236
2026-06-18T10:23:01.577598,+0.23,-0.30,-0.81,51.5415882,-0.015236
2026-06-18T10:23:01.637003,+0.19,-0.21,-1.04,51.5415882,-0.015236
2026-06-18T10:23:01.696824,+0.11,-0.10,-1.12,51.5415882,-0.015236
2026-06-18T10:23:01.787342,+0.14,-0.12,-0.86,51.5415882,-0.015236
2026-06-18T10:23:01.847211,+0.18,-0.10,-1.02,51.5416082,-0.0152783
2026-06-18T10:23:01.906368,+0.22,-0.26,-1.05,51.5416082,-0.0152783
2026-06-18T10:23:01.978157,+0.19,-0.23,-0.99,51.5416082,-0.0152783
2026-06-18T10:23:02.057346,+0.14,-0.14,-0.92,51.5416082,-0.0152783
2026-06-18T10:23:02.117020,+0.21,-0.28,-0.96,51.5416082,-0.0152783
2026-06-18T10:23:02.177138,+0.13,-0.10,-1.03,51.5416082,-0.0152783
2026-06-18T10:23:02.237174,+0.14,-0.25,-1.04,51.5416082,-0.0152783
2026-06-18T10:23:02.297963,+0.18,-0.11,-0.90,51.5416082,-0.0152783
2026-06-18T10:23:02.388569,+0.13,-0.24,-1.00,51.5416082,-0.0152783
2026-06-18T10:23:02.448791,+0.13,-0.18,-0.99,51.5416082,-0.0152783
2026-06-18T10:23:02.507310,+0.19,-0.23,-1.00,51.5416082,-0.0152783
2026-06-18T10:23:02.568502,+0.13,-0.19,-0.96,51.5416082,-0.0152783
2026-06-18T10:23:02.630642,+0.20,-0.26,-0.99,51.5416082,-0.0152783
2026-06-18T10:23:02.717677,+0.07,-0.17,-1.01,51.5416082,-0.0152783
2026-06-18T10:23:02.782327,+0.15,-0.13,-1.03,51.5416082,-0.0152783
2026-06-18T10:23:02.837267,+0.22,-0.17,-0.90,51.5416291,-0.0153232
2026-06-18T10:23:02.899614,+0.16,-0.15,-1.03,51.5416291,-0.0153232
2026-06-18T10:23:02.961245,+0.22,-0.15,-1.02,51.5416291,-0.0153232
2026-06-18T10:23:03.051247,+0.19,-0.22,-0.94,51.5416291,-0.0153232
2026-06-18T10:23:03.112132,+0.16,-0.18,-0.96,51.5416291,-0.0153232
2026-06-18T10:23:03.171820,+0.16,-0.22,-0.96,51.5416291,-0.0153232
2026-06-18T10:23:03.228642,+0.17,-0.14,-0.96,51.5416291,-0.0153232
2026-06-18T10:23:03.288647,+0.05,-0.09,-1.08,51.5416291,-0.0153232
2026-06-18T10:23:03.380706,+0.15,-0.22,-0.98,51.5416291,-0.0153232
2026-06-18T10:23:03.441090,+0.20,-0.28,-0.93,51.5416291,-0.0153232
2026-06-18T10:23:03.500514,+0.01,-0.06,-1.11,51.5416291,-0.0153232
2026-06-18T10:23:03.558235,+0.13,-0.25,-0.98,51.5416291,-0.0153232
2026-06-18T10:23:03.619633,+0.17,-0.17,-1.07,51.5416291,-0.0153232
2026-06-18T10:23:03.709836,+0.19,-0.21,-1.08,51.5416291,-0.0153232
2026-06-18T10:23:03.771827,+0.15,-0.17,-0.83,51.5416291,-0.0153232
2026-06-18T10:23:03.827294,+0.10,-0.13,-0.95,51.5416521,-0.0153734
2026-06-18T10:23:03.891213,+0.11,-0.08,-0.98,51.5416521,-0.0153734
2026-06-18T10:23:03.980301,+0.15,-0.10,-1.09,51.5416521,-0.0153734
2026-06-18T10:23:04.038031,+0.15,-0.15,-0.94,51.5416521,-0.0153734
2026-06-18T10:23:04.101387,+0.21,-0.12,-0.98,51.5416521,-0.0153734
2026-06-18T10:23:04.159649,+0.16,-0.13,-1.04,51.5416521,-0.0153734
2026-06-18T10:23:04.220150,+0.12,-0.20,-1.08,51.5416521,-0.0153734
2026-06-18T10:23:04.311816,+0.13,-0.12,-0.94,51.5416521,-0.0153734
2026-06-18T10:23:04.367076,+0.22,-0.17,-1.12,51.5416521,-0.0153734
2026-06-18T10:23:04.429596,+0.16,-0.11,-0.97,51.5416521,-0.0153734
2026-06-18T10:23:04.490766,+0.09,-0.20,-1.16,51.5416521,-0.0153734
2026-06-18T10:23:04.551345,+0.20,-0.17,-1.02,51.5416521,-0.0153734
2026-06-18T10:23:04.636512,+0.13,-0.16,-0.91,51.5416521,-0.0153734
