Timestamp,Acc_X,Acc_Y,Acc_Z,Latitude,Longitude
2026-06-18T10:25:37.239164,+0.25,-0.04,-0.98,51.541529,-0.016186
2026-06-18T10:25:37.298953,+0.25,-0.04,-0.98,51.541529,-0.016186
2026-06-18T10:25:37.354927,+0.25,-0.04,-0.98,51.541529,-0.016186
2026-06-18T10:25:37.416226,+0.25,-0.04,-0.98,51.541529,-0.016186
2026-06-18T10:25:37.505754,+0.25,-0.04,-0.98,51.541529,-0.016186
2026-06-18T10:25:37.571967,+0.25,-0.04,-0.98,51.541529,-0.016186
2026-06-18T10:25:37.628147,+0.25,-0.04,-0.98,51.541529,-0.016186
2026-06-18T10:25:37.686075,+0.25,-0.04,-0.98,51.541529,-0.016186
2026-06-18T10:25:37.751342,+0.25,-0.04,-0.98,51.541529,-0.016186
2026-06-18T10:25:37.836035,+0.25,-0.04,-0.98,51.5415265,-0.0161846
2026-06-18T10:25:37.897319,+0.25,-0.04,-0.98,51.5415265,-0.0161846
2026-06-18T10:25:37.959028,+0.25,-0.04,-0.98,51.5415265,-0.0161846
2026-06-18T10:25:38.048557,+0.25,-0.04,-0.98,51.5415265,-0.0161846
2026-06-18T10:25:38.107473,+0.25,-0.04,-0.98,51.5415265,-0.0161846
2026-06-18T10:25:38.197713,+0.25,-0.04,-0.98,51.5415265,-0.0161846
2026-06-18T10:25:38.228707,+0.25,-0.04,-0.98,51.5415265,-0.0161846
2026-06-18T10:25:38.288413,+0.25,-0.04,-0.98,51.5415265,-0.0161846
2026-06-18T10:25:38.345400,+0.25,-0.04,-0.98,51.5415265,-0.0161846
2026-06-18T10:25:38.435787,+0.25,-0.04,-0.98,51.5415265,-0.0161846
2026-06-18T10:25:38.496104,+0.25,-0.04,-0.98,51.5415265,-0.0161846
2026-06-18T10:25:38.556857,+0.25,-0.04,-0.98,51.5415265,-0.0161846
2026-06-18T10:25:38.616290,+0.25,-0.04,-0.98,51.5415265,-0.0161846
2026-06-18T10:25:38.679066,+0.25,-0.03,-0.98,51.5415265,-0.0161846
2026-06-18T10:25:38.771328,+0.25,-0.04,-0.98,51.5415265,-0.0161846
2026-06-18T10:25:38.825372,+0.25,-0.04,-0.98,51.541526,-0.0161849
2026-06-18T10:25:38.887330,+0.25,-0.04,-0.98,51.541526,-0.0161849
2026-06-18T10:25:38.945773,+0.25,-0.04,-0.98,51.541526,-0.0161849
2026-06-18T10:25:39.006202,+0.25,-0.04,-0.98,51.541526,-0.0161849
2026-06-18T10:25:39.097923,+0.25,-0.03,-0.98,51.541526,-0.0161849
2026-06-18T10:25:39.157837,+0.25,-0.03,-0.98,51.541526,-0.0161849
2026-06-18T10:25:39.215797,+0.25,-0.04,-0.98,51.541526,-0.0161849
2026-06-18T10:25:39.278123,+0.25,-0.04,-0.98,51.541526,-0.0161849
2026-06-18T10:25:39.336478,+0.25,-0.04,-0.98,51.541526,-0.0161849
2026-06-18T10:25:39.427096,+0.25,-0.04,-0.98,51.541526,-0.0161849
2026-06-18T10:25:39.486865,+0.25,-0.02,-1.00,51.541526,-0.0161849
2026-06-18T10:25:39.549076,+0.26,-0.03,-0.97,51.541526,-0.0161849
2026-06-18T10:25:39.607813,+0.51,+0.11,-0.98,51.541526,-0.0161849
2026-06-18T10:25:39.668409,+0.35,+0.00,-0.98,51.541526,-0.0161849
2026-06-18T10:25:39.758708,+0.31,-0.10,-0.97,51.541526,-0.0161849
2026-06-18T10:25:39.815441,+0.21,-0.13,-0.96,51.5415232,-0.0161898
2026-06-18T10:25:39.878965,+0.17,-0.15,-0.97,51.5415232,-0.0161898
2026-06-18T10:25:39.935789,+0.12,-0.19,-0.96,51.5415232,-0.0161898
2026-06-18T10:25:40.030053,+0.13,-0.07,-1.00,51.5415232,-0.0161898
2026-06-18T10:25:40.087011,+0.01,-0.20,-0.97,51.5415232,-0.0161898
2026-06-18T10:25:40.147504,+0.16,-0.15,-0.96,51.5415232,-0.0161898
2026-06-18T10:25:40.208333,+0.15,-0.14,-0.92,51.5415232,-0.0161898
2026-06-18T10:25:40.267207,+0.19,-0.10,-0.93,51.5415232,-0.0161898
2026-06-18T10:25:40.356970,+0.12,-0.11,-0.99,51.5415232,-0.0161898
2026-06-18T10:25:40.416179,+0.04,-0.14,-1.01,51.5415232,-0.0161898
2026-06-18T10:25:40.482328,+0.06,-0.10,-0.98,51.5415232,-0.0161898
2026-06-18T10:25:40.536109,+0.15,-0.02,-1.00,51.5415232,-0.0161898
2026-06-18T10:25:40.595665,+0.12,-0.15,-0.98,51.5415232,-0.0161898
2026-06-18T10:25:40.688567,+0.16,-0.12,-0.97,51.5415232,-0.0161898
2026-06-18T10:25:40.748278,+0.14,-0.06,-0.97,51.5415232,-0.0161898
2026-06-18T10:25:40.805679,+0.09,-0.08,-0.96,51.5415232,-0.0161898
2026-06-18T10:25:40.866408,+0.17,-0.12,-0.97,51.5415218,-0.0161944
2026-06-18T10:25:40.927541,+0.05,-0.16,-1.01,51.5415218,-0.0161944
2026-06-18T10:25:41.018518,+0.06,-0.13,-1.00,51.5415218,-0.0161944
2026-06-18T10:25:41.077143,+0.02,-0.14,-0.98,51.5415218,-0.0161944
2026-06-18T10:25:41.138338,+0.06,-0.13,-0.98,51.5415218,-0.0161944
2026-06-18T10:25:41.194951,-0.00,-0.15,-0.98,51.5415218,-0.0161944
2026-06-18T10:25:41.260961,+0.07,-0.07,-0.99,51.5415218,-0.0161944
2026-06-18T10:25:41.345208,+0.13,-0.08,-1.00,51.5415218,-0.0161944
2026-06-18T10:25:41.407098,+0.15,-0.08,-0.98,51.5415218,-0.0161944
2026-06-18T10:25:41.467564,+0.23,-0.09,-0.99,51.5415218,-0.0161944
2026-06-18T10:25:41.527055,+0.26,-0.10,-1.00,51.5415218,-0.0161944
2026-06-18T10:25:41.589543,+0.29,-0.07,-1.01,51.5415218,-0.0161944
2026-06-18T10:25:41.678394,+0.30,-0.06,-0.98,51.5415218,-0.0161944
2026-06-18T10:25:41.737166,+0.27,-0.05,-0.94,51.5415218,-0.0161944
2026-06-18T10:25:41.798442,+0.15,-0.13,-0.95,51.5415218,-0.0161944
2026-06-18T10:25:41.856137,+0.00,-0.21,-0.97,51.5415198,-0.0161977
2026-06-18T10:25:41.946562,+0.29,+0.07,-0.98,51.5415198,-0.0161977
2026-06-18T10:25:42.010256,+0.51,+0.19,-0.96,51.5415198,-0.0161977
2026-06-18T10:25:42.067974,+0.66,+0.14,-1.01,51.5415198,-0.0161977
2026-06-18T10:25:42.127457,+0.06,-0.38,-0.98,51.5415198,-0.0161977
2026-06-18T10:25:42.218860,+0.06,-0.33,-1.00,51.5415198,-0.0161977
2026-06-18T10:25:42.276734,+0.03,-0.19,-0.97,51.5415198,-0.0161977
2026-06-18T10:25:42.338243,+0.05,-0.08,-0.99,51.5415198,-0.0161977
2026-06-18T10:25:42.401324,+0.07,-0.21,-0.96,51.5415198,-0.0161977
2026-06-18T10:25:42.456998,+0.23,-0.04,-0.98,51.5415198,-0.0161977
2026-06-18T10:25:42.547040,+0.25,-0.01,-0.98,51.5415198,-0.0161977
2026-06-18T10:25:42.606551,+0.27,-0.00,-0.96,51.5415198,-0.0161977
2026-06-18T10:25:42.667690,+0.42,+0.07,-0.97,51.5415198,-0.0161977
2026-06-18T10:25:42.727685,+0.35,+0.01,-0.97,51.5415198,-0.0161977
2026-06-18T10:25:42.788215,+0.29,-0.03,-0.97,51.5415198,-0.0161977
2026-06-18T10:25:42.877424,+0.24,-0.04,-0.98,51.541515,-0.0161994
2026-06-18T10:25:42.937451,+0.13,-0.06,-0.97,51.541515,-0.0161994
2026-06-18T10:25:42.999227,+0.21,-0.06,-0.96,51.541515,-0.0161994
2026-06-18T10:25:43.058757,+0.29,+0.00,-0.87,51.541515,-0.0161994
2026-06-18T10:25:43.118121,+0.58,-0.11,-0.83,51.541515,-0.0161994
2026-06-18T10:25:43.208673,+0.22,+0.01,-0.94,51.541515,-0.0161994
2026-06-18T10:25:43.266701,+0.32,-0.03,-0.98,51.541515,-0.0161994
2026-06-18T10:25:43.325844,+0.30,-0.11,-0.95,51.541515,-0.0161994
2026-06-18T10:25:43.391009,+0.31,-0.12,-0.95,51.541515,-0.0161994
2026-06-18T10:25:43.448063,+0.39,-0.10,-0.93,51.541515,-0.0161994
2026-06-18T10:25:43.539963,+0.37,-0.04,-0.95,51.541515,-0.0161994
2026-06-18T10:25:43.596390,+0.40,-0.06,-0.94,51.541515,-0.0161994
2026-06-18T10:25:43.657144,+0.38,-0.09,-0.99,51.541515,-0.0161994
2026-06-18T10:25:43.718023,+0.38,-0.16,-0.99,51.541515,-0.0161994
2026-06-18T10:25:43.787636,+0.37,-0.24,-0.92,51.541515,-0.0161994
2026-06-18T10:25:43.867,+0.45,-0.28,-0.78,51.5415119,-0.0161981
2026-06-18T10:25:43.928076,+0.56,-0.18,-0.91,51.5415119,-0.0161981
2026-06-18T10:25:43.986967,+0.20,+0.08,-0.89,51.5415119,-0.0161981
2026-06-18T10:25:44.046687,+0.18,-0.10,-1.33,51.5415119,-0.0161981
2026-06-18T10:25:44.137909,+0.37,-0.35,-0.85,51.5415119,-0.0161981
2026-06-18T10:25:44.197318,+0.07,-0.13,-0.92,51.5415119,-0.0161981
2026-06-18T10:25:44.256508,+0.18,-0.10,-0.98,51.5415119,-0.0161981
2026-06-18T10:25:44.316130,+0.17,+0.01,-0.56,51.5415119,-0.0161981
2026-06-18T10:25:44.375456,+0.26,-0.25,-0.97,51.5415119,-0.0161981
2026-06-18T10:25:44.467183,+0.06,-0.29,-1.01,51.5415119,-0.0161981
2026-06-18T10:25:44.527386,+0.30,-0.34,-0.95,51.5415119,-0.0161981
2026-06-18T10:25:44.588453,+0.37,-0.36,-1.02,51.5415119,-0.0161981
2026-06-18T10:25:44.647513,-0.03,+0.16,-1.23,51.5415119,-0.0161981
2026-06-18T10:25:44.706405,+0.35,-0.27,-0.78,51.5415119,-0.0161981
2026-06-18T10:25:44.795046,-0.02,+0.07,-1.26,51.5415119,-0.0161981
2026-06-18T10:25:44.859714,+0.28,-0.38,-1.02,51.5415081,-0.0161827
2026-06-18T10:25:44.914590,+0.10,+0.04,-1.16,51.5415081,-0.0161827
2026-06-18T10:25:44.975485,-0.01,-0.11,-1.03,51.5415081,-0.0161827
2026-06-18T10:25:45.037984,+0.08,-0.21,-1.08,51.5415081,-0.0161827
2026-06-18T10:25:45.128322,+0.27,-0.25,-0.86,51.5415081,-0.0161827
2026-06-18T10:25:45.185353,+0.15,-0.19,-0.94,51.5415081,-0.0161827
2026-06-18T10:25:45.247536,+0.19,-0.15,-0.93,51.5415081,-0.0161827
2026-06-18T10:25:45.306972,+0.22,-0.24,-0.81,51.5415081,-0.0161827
2026-06-18T10:25:45.369199,+0.07,-0.12,-1.04,51.5415081,-0.0161827
2026-06-18T10:25:45.456697,+0.11,-0.23,-1.05,51.5415081,-0.0161827
2026-06-18T10:25:45.515782,+0.21,-0.33,-0.85,51.5415081,-0.0161827
2026-06-18T10:25:45.576548,+0.19,-0.20,-0.91,51.5415081,-0.0161827
2026-06-18T10:25:45.636138,+0.15,-0.09,-0.89,51.5415081,-0.0161827
2026-06-18T10:25:45.696632,+0.14,-0.19,-1.05,51.5415081,-0.0161827
2026-06-18T10:25:45.785466,+0.15,-0.11,-1.05,51.5415081,-0.0161827
2026-06-18T10:25:45.846423,+0.16,-0.14,-1.03,51.5415029,-0.0161573
2026-06-18T10:25:45.905195,+0.08,-0.09,-1.07,51.5415029,-0.0161573
2026-06-18T10:25:45.966794,+0.07,-0.04,-1.11,51.5415029,-0.0161573
2026-06-18T10:25:46.027600,+0.12,-0.07,-1.03,51.5415029,-0.0161573
2026-06-18T10:25:46.119093,+0.16,-0.18,-1.10,51.5415029,-0.0161573
2026-06-18T10:25:46.179445,+0.10,-0.10,-0.80,51.5415029,-0.0161573
2026-06-18T10:25:46.241615,+0.22,-0.22,-1.02,51.5415029,-0.0161573
2026-06-18T10:25:46.297813,+0.22,-0.20,-0.87,51.5415029,-0.0161573
2026-06-18T10:25:46.387489,+0.16,-0.21,-1.00,51.5415029,-0.0161573
2026-06-18T10:25:46.447512,+0.17,-0.16,-0.97,51.5415029,-0.0161573
2026-06-18T10:25:46.507118,+0.15,-0.17,-0.82,51.5415029,-0.0161573
2026-06-18T10:25:46.580970,+0.16,-0.26,-0.98,51.5415029,-0.0161573
2026-06-18T10:25:46.625434,+0.03,-0.06,-0.88,51.5415029,-0.0161573
2026-06-18T10:25:46.718923,+0.24,-0.19,-0.94,51.5415029,-0.0161573
2026-06-18T10:25:46.775320,+0.13,-0.23,-0.91,51.5415029,-0.0161573
2026-06-18T10:25:46.840838,+0.13,-0.20,-0.96,51.5414983,-0.0161243
2026-06-18T10:25:46.897814,+0.07,-0.11,-1.04,51.5414983,-0.0161243
2026-06-18T10:25:46.955778,+0.12,-0.15,-0.78,51.5414983,-0.0161243
2026-06-18T10:25:47.046145,+0.16,-0.15,-1.01,51.5414983,-0.0161243
2026-06-18T10:25:47.105294,+0.04,-0.07,-0.94,51.5414983,-0.0161243
2026-06-18T10:25:47.165489,+0.23,-0.25,-0.82,51.5414983,-0.0161243
2026-06-18T10:25:47.226488,+0.15,-0.05,-1.02,51.5414983,-0.0161243
2026-06-18T10:25:47.286180,+0.16,-0.13,-1.16,51.5414983,-0.0161243
2026-06-18T10:25:47.379958,+0.20,-0.11,-0.96,51.5414983,-0.0161243
2026-06-18T10:25:47.437562,+0.10,-0.23,-0.98,51.5414983,-0.0161243
2026-06-18T10:25:47.496557,+0.08,-0.08,-1.08,51.5414983,-0.0161243
2026-06-18T10:25:47.557435,+0.17,-0.17,-1.06,51.5414983,-0.0161243
2026-06-18T10:25:47.617142,+0.16,-0.20,-0.80,51.5414983,-0.0161243
2026-06-18T10:25:47.707625,+0.15,-0.19,-1.13,51.5414983,-0.0161243
2026-06-18T10:25:47.769534,+0.16,-0.19,-0.80,51.5414983,-0.0161243
2026-06-18T10:25:47.825259,+0.18,-0.17,-1.10,51.5414944,-0.0160824
2026-06-18T10:25:47.885981,+0.18,-0.13,-1.06,51.5414944,-0.0160824
2026-06-18T10:25:47.946269,+0.24,-0.24,-0.89,51.5414944,-0.0160824
2026-06-18T10:25:48.037212,+0.10,-0.09,-1.06,51.5414944,-0.0160824
2026-06-18T10:25:48.097150,+0.16,-0.20,-0.88,51.5414944,-0.0160824
2026-06-18T10:25:48.154916,+0.06,-0.09,-0.98,51.5414944,-0.0160824
2026-06-18T10:25:48.247661,+0.05,-0.05,-0.89,51.5414944,-0.0160824
2026-06-18T10:25:48.305807,+0.20,-0.21,-0.88,51.5414944,-0.0160824
2026-06-18T10:25:48.367345,+0.07,-0.02,-1.14,51.5414944,-0.0160824
2026-06-18T10:25:48.427480,+0.20,-0.26,-0.93,51.5414944,-0.0160824
2026-06-18T10:25:48.489374,+0.19,-0.23,-0.92,51.5414944,-0.0160824
2026-06-18T10:25:48.545861,+0.10,-0.16,-1.01,51.5414944,-0.0160824
2026-06-18T10:25:48.638180,+0.19,-0.23,-0.90,51.5414944,-0.0160824
2026-06-18T10:25:48.695742,+0.23,-0.22,-0.88,51.5414944,-0.0160824
2026-06-18T10:25:48.757124,+0.17,-0.12,-1.01,51.5414944,-0.0160824
2026-06-18T10:25:48.815374,+0.09,-0.09,-1.04,51.5414891,-0.0160352
2026-06-18T10:25:48.876585,+0.01,-0.04,-0.97,51.5414891,-0.0160352
2026-06-18T10:25:48.966768,+0.11,-0.16,-0.84,51.5414891,-0.0160352
2026-06-18T10:25:49.026417,+0.12,-0.18,-0.97,51.5414891,-0.0160352
2026-06-18T10:25:49.087715,+0.12,-0.16,-0.93,51.5414891,-0.0160352
2026-06-18T10:25:49.147127,+0.20,-0.26,-1.02,51.5414891,-0.0160352
2026-06-18T10:25:49.206160,+0.22,-0.11,-1.02,51.5414891,-0.0160352
2026-06-18T10:25:49.297953,+0.17,-0.19,-0.92,51.5414891,-0.0160352
2026-06-18T10:25:49.356859,+0.24,-0.10,-0.71,51.5414891,-0.0160352
2026-06-18T10:25:49.417909,+0.06,-0.01,-1.34,51.5414891,-0.0160352
2026-06-18T10:25:49.478469,+0.07,-0.06,-0.97,51.5414891,-0.0160352
2026-06-18T10:25:49.567677,+0.08,-0.06,-1.01,51.5414891,-0.0160352
2026-06-18T10:25:49.626693,+0.23,-0.09,-1.05,51.5414891,-0.0160352
2026-06-18T10:25:49.687442,+0.03,-0.07,-1.18,51.5414891,-0.0160352
2026-06-18T10:25:49.747971,+0.12,-0.16,-0.88,51.5414891,-0.0160352
2026-06-18T10:25:49.805891,+0.13,-0.20,-0.89,51.5414811,-0.0159849
2026-06-18T10:25:49.866999,+0.13,-0.19,-1.08,51.5414811,-0.0159849
2026-06-18T10:25:49.957141,+0.16,-0.18,-1.05,51.5414811,-0.0159849
2026-06-18T10:25:50.018373,+0.12,-0.10,-0.93,51.5414811,-0.0159849
2026-06-18T10:25:50.076921,+0.10,-0.20,-1.03,51.5414811,-0.0159849
2026-06-18T10:25:50.137898,+0.12,-0.16,-0.92,51.5414811,-0.0159849
2026-06-18T10:25:50.227580,+0.08,-0.11,-1.11,51.5414811,-0.0159849
2026-06-18T10:25:50.288655,+0.20,-0.12,-0.92,51.5414811,-0.0159849
2026-06-18T10:25:50.347187,+0.09,-0.09,-1.15,51.5414811,-0.0159849
2026-06-18T10:25:50.406747,+0.22,-0.23,-0.81,51.5414811,-0.0159849
2026-06-18T10:25:50.497140,+0.20,-0.20,-0.90,51.5414811,-0.0159849
2026-06-18T10:25:50.563718,+0.09,-0.13,-1.02,51.5414811,-0.0159849
2026-06-18T10:25:50.616800,-0.06,-0.05,-1.36,51.5414811,-0.0159849
2026-06-18T10:25:50.676489,+0.15,-0.14,-0.91,51.5414811,-0.0159849
2026-06-18T10:25:50.738384,+0.11,-0.10,-1.04,51.5414811,-0.0159849
2026-06-18T10:25:50.828399,+0.19,-0.22,-0.82,51.5414692,-0.0159351
2026-06-18T10:25:50.887360,+0.07,-0.13,-1.03,51.5414692,-0.0159351
2026-06-18T10:25:50.946587,+0.10,-0.13,-0.94,51.5414692,-0.0159351
2026-06-18T10:25:51.006729,+0.18,-0.13,-1.09,51.5414692,-0.0159351
2026-06-18T10:25:51.065340,+0.12,-0.10,-1.03,51.5414692,-0.0159351
2026-06-18T10:25:51.156406,+0.18,-0.25,-1.04,51.5414692,-0.0159351
2026-06-18T10:25:51.218156,+0.03,-0.06,-1.09,51.5414692,-0.0159351
2026-06-18T10:25:51.276775,+0.13,-0.14,-0.83,51.5414692,-0.0159351
2026-06-18T10:25:51.336636,+0.09,-0.16,-0.94,51.5414692,-0.0159351
2026-06-18T10:25:51.396909,+0.15,-0.12,-0.89,51.5414692,-0.0159351
2026-06-18T10:25:51.485953,+0.20,-0.21,-0.96,51.5414692,-0.0159351
2026-06-18T10:25:51.546313,+0.05,-0.11,-1.09,51.5414692,-0.0159351
2026-06-18T10:25:51.606696,+0.26,-0.14,-0.92,51.5414692,-0.0159351
2026-06-18T10:25:51.667034,+0.19,+0.04,-0.98,51.5414692,-0.0159351
2026-06-18T10:25:51.726930,-0.09,-0.09,-1.06,51.5414692,-0.0159351
2026-06-18T10:25:51.816142,+0.11,-0.25,-1.17,51.541452,-0.015889
2026-06-18T10:25:51.879142,+0.32,-0.10,-0.92,51.541452,-0.015889
2026-06-18T10:25:51.937892,-0.18,+0.17,-1.06,51.541452,-0.015889
2026-06-18T10:25:51.997853,+0.17,-0.14,-1.03,51.541452,-0.015889
2026-06-18T10:25:52.057323,+0.06,-0.36,-0.85,51.541452,-0.015889
2026-06-18T10:25:52.147662,+0.13,-0.13,-1.00,51.541452,-0.015889
2026-06-18T10:25:52.205916,+0.16,-0.24,-0.97,51.541452,-0.015889
2026-06-18T10:25:52.267185,+0.18,-0.20,-0.91,51.541452,-0.015889
2026-06-18T10:25:52.326569,-0.05,+0.00,-1.71,51.541452,-0.015889
2026-06-18T10:25:52.418520,-0.08,-0.07,-0.98,51.541452,-0.015889
2026-06-18T10:25:52.477071,+0.17,-0.24,-0.82,51.541452,-0.015889
2026-06-18T10:25:52.536666,-0.01,-0.07,-1.24,51.541452,-0.015889
2026-06-18T10:25:52.601732,+0.48,-0.58,-0.64,51.541452,-0.015889
2026-06-18T10:25:52.657105,-0.02,+0.01,-1.03,51.541452,-0.015889
2026-06-18T10:25:52.746231,+0.19,-0.35,-1.02,51.541452,-0.015889
2026-06-18T10:25:52.807767,+0.07,-0.09,-0.91,51.5414283,-0.0158476
2026-06-18T10:25:52.866516,+0.22,-0.19,-1.14,51.5414283,-0.0158476
2026-06-18T10:25:52.926871,+0.26,-0.30,-0.75,51.5414283,-0.0158476
2026-06-18T10:25:52.986478,+0.08,-0.16,-0.66,51.5414283,-0.0158476
2026-06-18T10:25:53.077406,+0.21,-0.19,-0.86,51.5414283,-0.0158476
2026-06-18T10:25:53.136221,+0.06,-0.06,-1.08,51.5414283,-0.0158476
2026-06-18T10:25:53.198040,+0.20,-0.25,-0.97,51.5414283,-0.0158476
2026-06-18T10:25:53.256630,+0.17,-0.13,-0.76,51.5414283,-0.0158476
2026-06-18T10:25:53.317388,+0.18,-0.29,-0.91,51.5414283,-0.0158476
2026-06-18T10:25:53.406415,+0.24,-0.11,-0.89,51.5414283,-0.0158476
2026-06-18T10:25:53.466851,+0.42,-0.49,-0.76,51.5414283,-0.0158476
2026-06-18T10:25:53.526583,+0.06,-0.16,-1.04,51.5414283,-0.0158476
2026-06-18T10:25:53.586235,+0.16,-0.16,-0.99,51.5414283,-0.0158476
2026-06-18T10:25:53.646063,+0.08,-0.07,-1.00,51.5414283,-0.0158476
2026-06-18T10:25:53.737972,+0.09,+0.03,-0.94,51.5414283,-0.0158476
2026-06-18T10:25:53.799703,+0.18,-0.29,-0.58,51.5414283,-0.0158476
2026-06-18T10:25:53.856462,+0.12,-0.12,-0.92,51.5414049,-0.0158123
2026-06-18T10:25:53.918284,-0.02,+0.03,-0.77,51.5414049,-0.0158123
2026-06-18T10:25:53.978672,+0.07,-0.11,-0.76,51.5414049,-0.0158123
2026-06-18T10:25:54.068341,+0.02,-0.02,-1.00,51.5414049,-0.0158123
2026-06-18T10:25:54.127964,+0.03,-0.01,-0.99,51.5414049,-0.0158123
2026-06-18T10:25:54.187718,+0.17,-0.23,-0.86,51.5414049,-0.0158123
2026-06-18T10:25:54.248501,+0.04,+0.01,-1.01,51.5414049,-0.0158123
2026-06-18T10:25:54.340199,+0.19,-0.25,-1.25,51.5414049,-0.0158123
2026-06-18T10:25:54.396338,+0.05,-0.08,-1.13,51.5414049,-0.0158123
2026-06-18T10:25:54.457463,+0.12,-0.01,-1.10,51.5414049,-0.0158123
2026-06-18T10:25:54.516687,+0.08,-0.02,-1.10,51.5414049,-0.0158123
2026-06-18T10:25:54.576995,+0.25,-0.20,-1.01,51.5414049,-0.0158123
2026-06-18T10:25:54.666988,+0.19,-0.14,-1.13,51.5414049,-0.0158123
2026-06-18T10:25:54.726616,+0.14,-0.22,-0.92,51.5414049,-0.0158123
2026-06-18T10:25:54.786127,+0.05,-0.08,-1.05,51.5414049,-0.0158123
2026-06-18T10:25:54.847566,+0.16,-0.15,-0.97,51.5413748,-0.0157818
2026-06-18T10:25:54.908206,+0.09,-0.11,-0.98,51.5413748,-0.0157818
2026-06-18T10:25:54.995834,+0.17,-0.18,-0.86,51.5413748,-0.0157818
2026-06-18T10:25:55.057118,+0.09,-0.15,-1.07,51.5413748,-0.0157818
2026-06-18T10:25:55.116506,+0.11,-0.17,-1.15,51.5413748,-0.0157818
2026-06-18T10:25:55.178363,+0.09,-0.06,-0.87,51.5413748,-0.0157818
2026-06-18T10:25:55.239651,-0.03,-0.13,-1.18,51.5413748,-0.0157818
2026-06-18T10:25:55.325995,+0.09,-0.08,-1.05,51.5413748,-0.0157818
2026-06-18T10:25:55.386124,+0.12,-0.18,-0.83,51.5413748,-0.0157818
2026-06-18T10:25:55.446130,+0.16,-0.24,-1.09,51.5413748,-0.0157818
2026-06-18T10:25:55.507560,+0.18,-0.21,-0.93,51.5413748,-0.0157818
2026-06-18T10:25:55.566417,+0.22,-0.22,-1.02,51.5413748,-0.0157818
2026-06-18T10:25:55.654859,+0.09,-0.13,-0.89,51.5413748,-0.0157818
2026-06-18T10:25:55.716924,+0.17,-0.21,-0.81,51.5413748,-0.0157818
2026-06-18T10:25:55.776011,+0.12,-0.16,-0.85,51.5413748,-0.0157818
2026-06-18T10:25:55.836123,+0.15,-0.13,-0.94,51.5413456,-0.0157485
2026-06-18T10:25:55.897787,+0.10,-0.13,-0.95,51.5413456,-0.0157485
2026-06-18T10:25:55.987952,+0.10,-0.23,-0.93,51.5413456,-0.0157485
2026-06-18T10:25:56.046892,-0.03,+0.12,-1.04,51.5413456,-0.0157485
2026-06-18T10:25:56.106618,+0.12,-0.04,-0.84,51.5413456,-0.0157485
2026-06-18T10:25:56.166747,+0.23,-0.31,-0.94,51.5413456,-0.0157485
2026-06-18T10:25:56.228187,+0.03,+0.04,-1.12,51.5413456,-0.0157485
2026-06-18T10:25:56.318698,+0.15,-0.14,-1.01,51.5413456,-0.0157485
2026-06-18T10:25:56.375586,+0.26,-0.32,-0.76,51.5413456,-0.0157485
2026-06-18T10:25:56.437746,+0.02,-0.03,-1.20,51.5413456,-0.0157485
2026-06-18T10:25:56.526702,+0.07,-0.18,-1.06,51.5413456,-0.0157485
2026-06-18T10:25:56.586247,+0.17,-0.14,-1.01,51.5413456,-0.0157485
2026-06-18T10:25:56.645494,+0.11,-0.14,-1.08,51.5413456,-0.0157485
2026-06-18T10:25:56.712354,+0.23,-0.43,-0.78,51.5413456,-0.0157485
2026-06-18T10:25:56.767782,+0.17,-0.18,-1.00,51.5413456,-0.0157485
2026-06-18T10:25:56.857101,+0.10,-0.10,-1.32,51.541314,-0.0157203
2026-06-18T10:25:56.916964,+0.13,-0.15,-0.69,51.541314,-0.0157203
2026-06-18T10:25:56.979205,+0.09,-0.07,-1.01,51.541314,-0.0157203
2026-06-18T10:25:57.037820,+0.15,-0.18,-0.93,51.541314,-0.0157203
2026-06-18T10:25:57.098728,+0.19,-0.19,-1.13,51.541314,-0.0157203
2026-06-18T10:25:57.187496,+0.03,-0.03,-0.69,51.541314,-0.0157203
2026-06-18T10:25:57.245594,+0.04,-0.08,-1.02,51.541314,-0.0157203
2026-06-18T10:25:57.306735,+0.15,-0.16,-1.00,51.541314,-0.0157203
2026-06-18T10:25:57.366196,+0.09,-0.24,-1.01,51.541314,-0.0157203
2026-06-18T10:25:57.426893,+0.20,-0.32,-0.63,51.541314,-0.0157203
2026-06-18T10:25:57.517590,+0.08,-0.04,-1.12,51.541314,-0.0157203
2026-06-18T10:25:57.578412,+0.09,-0.19,-1.03,51.541314,-0.0157203
2026-06-18T10:25:57.636992,+0.28,-0.26,-0.92,51.541314,-0.0157203
2026-06-18T10:25:57.696910,+0.22,-0.08,-0.87,51.541314,-0.0157203
2026-06-18T10:25:57.757084,+0.08,-0.06,-0.97,51.541314,-0.0157203
2026-06-18T10:25:57.845677,+0.11,-0.12,-1.09,51.5412884,-0.0156897
2026-06-18T10:25:57.906355,+0.10,-0.03,-0.88,51.5412884,-0.0156897
2026-06-18T10:25:57.967647,+0.02,-0.14,-1.32,51.5412884,-0.0156897
2026-06-18T10:25:58.026094,+0.21,-0.24,-0.76,51.5412884,-0.0156897
2026-06-18T10:25:58.087593,+0.27,-0.31,-0.94,51.5412884,-0.0156897
2026-06-18T10:25:58.177484,+0.18,-0.19,-1.00,51.5412884,-0.0156897
2026-06-18T10:25:58.237211,+0.13,-0.18,-0.84,51.5412884,-0.0156897
2026-06-18T10:25:58.296089,+0.13,-0.11,-0.93,51.5412884,-0.0156897
2026-06-18T10:25:58.356506,-0.00,-0.09,-1.09,51.5412884,-0.0156897
2026-06-18T10:25:58.446538,+0.10,-0.09,-0.86,51.5412884,-0.0156897
2026-06-18T10:25:58.506182,+0.18,-0.28,-0.84,51.5412884,-0.0156897
2026-06-18T10:25:58.567295,+0.18,-0.22,-1.13,51.5412884,-0.0156897
2026-06-18T10:25:58.627479,+0.11,-0.18,-0.96,51.5412884,-0.0156897
2026-06-18T10:25:58.687800,+0.07,-0.08,-1.09,51.5412884,-0.0156897
2026-06-18T10:25:58.775113,+0.11,-0.21,-0.80,51.5412884,-0.0156897
2026-06-18T10:25:58.838589,+0.11,-0.15,-1.02,51.5412615,-0.0156594
2026-06-18T10:25:58.897721,+0.14,-0.13,-0.80,51.5412615,-0.0156594
2026-06-18T10:25:58.956592,+0.19,-0.24,-1.11,51.5412615,-0.0156594
2026-06-18T10:25:59.018380,+0.10,-0.09,-0.73,51.5412615,-0.0156594
2026-06-18T10:25:59.108631,+0.20,-0.27,-1.14,51.5412615,-0.0156594
2026-06-18T10:25:59.166814,-0.02,+0.03,-0.99,51.5412615,-0.0156594
2026-06-18T10:25:59.227002,+0.15,-0.15,-1.03,51.5412615,-0.0156594
2026-06-18T10:25:59.287290,+0.27,-0.29,-0.72,51.5412615,-0.0156594
2026-06-18T10:25:59.348884,-0.04,-0.01,-1.28,51.5412615,-0.0156594
2026-06-18T10:25:59.439759,+0.15,-0.30,-1.02,51.5412615,-0.0156594
2026-06-18T10:25:59.496306,+0.12,-0.12,-0.98,51.5412615,-0.0156594
2026-06-18T10:25:59.557042,+0.22,-0.21,-0.84,51.5412615,-0.0156594
2026-06-18T10:25:59.616575,+0.12,-0.11,-0.89,51.5412615,-0.0156594
2026-06-18T10:25:59.676107,+0.15,-0.08,-1.02,51.5412615,-0.0156594
2026-06-18T10:25:59.766400,+0.00,-0.14,-0.90,51.5412615,-0.0156594
2026-06-18T10:25:59.825236,+0.26,-0.38,-0.81,51.5412316,-0.0156238
2026-06-18T10:25:59.886628,+0.20,-0.18,-0.92,51.5412316,-0.0156238
2026-06-18T10:25:59.945883,+0.09,-0.17,-0.96,51.5412316,-0.0156238
2026-06-18T10:26:00.008187,+0.12,-0.19,-0.72,51.5412316,-0.0156238
2026-06-18T10:26:00.097797,+0.27,-0.28,-0.92,51.5412316,-0.0156238
2026-06-18T10:26:00.156502,+0.06,+0.00,-0.94,51.5412316,-0.0156238
2026-06-18T10:26:00.216546,+0.13,-0.12,-1.03,51.5412316,-0.0156238
2026-06-18T10:26:00.277679,+0.19,-0.15,-0.98,51.5412316,-0.0156238
2026-06-18T10:26:00.337379,+0.08,-0.18,-1.05,51.5412316,-0.0156238
2026-06-18T10:26:00.426673,+0.10,-0.25,-1.07,51.5412316,-0.0156238
2026-06-18T10:26:00.487121,+0.12,-0.12,-0.70,51.5412316,-0.0156238
2026-06-18T10:26:00.545867,+0.28,-0.32,-0.98,51.5412316,-0.0156238
2026-06-18T10:26:00.605952,+0.06,+0.07,-1.19,51.5412316,-0.0156238
2026-06-18T10:26:00.697146,+0.11,-0.19,-0.91,51.5412316,-0.0156238
2026-06-18T10:26:00.756532,+0.22,-0.30,-0.79,51.5412316,-0.0156238
2026-06-18T10:26:00.816036,+0.12,-0.06,-1.10,51.5412022,-0.0155878
2026-06-18T10:26:00.875475,-0.01,+0.11,-0.98,51.5412022,-0.0155878
2026-06-18T10:26:00.936795,+0.15,-0.36,-0.93,51.5412022,-0.0155878
2026-06-18T10:26:01.026706,+0.18,-0.11,-0.89,51.5412022,-0.0155878
2026-06-18T10:26:01.085316,+0.18,-0.21,-1.09,51.5412022,-0.0155878
2026-06-18T10:26:01.145633,+0.20,-0.26,-1.01,51.5412022,-0.0155878
2026-06-18T10:26:01.208128,+0.09,-0.17,-0.99,51.5412022,-0.0155878
2026-06-18T10:26:01.266914,-0.03,-0.00,-1.41,51.5412022,-0.0155878
2026-06-18T10:26:01.357726,+0.00,-0.01,-0.72,51.5412022,-0.0155878
2026-06-18T10:26:01.417957,-0.04,-0.01,-1.15,51.5412022,-0.0155878
2026-06-18T10:26:01.481491,+0.23,-0.27,-0.49,51.5412022,-0.0155878
2026-06-18T10:26:01.536156,+0.09,-0.02,-1.06,51.5412022,-0.0155878
2026-06-18T10:26:01.596704,+0.34,-0.26,-0.98,51.5412022,-0.0155878
2026-06-18T10:26:01.686752,+0.37,-0.53,-1.06,51.5412022,-0.0155878
2026-06-18T10:26:01.746163,+0.20,-0.20,-0.52,51.5412022,-0.0155878
2026-06-18T10:26:01.809687,+0.20,-0.19,-1.11,51.5411701,-0.0155477
2026-06-18T10:26:01.866915,+0.03,+0.14,-1.40,51.5411701,-0.0155477
2026-06-18T10:26:01.927638,-0.02,-0.07,-1.50,51.5411701,-0.0155477
2026-06-18T10:26:02.018395,+0.24,-0.39,-0.31,51.5411701,-0.0155477
2026-06-18T10:26:02.075993,+0.16,-0.10,-0.97,51.5411701,-0.0155477
2026-06-18T10:26:02.137072,+0.05,-0.02,-0.83,51.5411701,-0.0155477
2026-06-18T10:26:02.201124,+0.24,-0.25,-1.08,51.5411701,-0.0155477
2026-06-18T10:26:02.258167,+0.30,-0.38,-0.59,51.5411701,-0.0155477
2026-06-18T10:26:02.348555,+0.08,-0.10,-0.99,51.5411701,-0.0155477
2026-06-18T10:26:02.405594,+0.28,-0.34,-0.63,51.5411701,-0.0155477
2026-06-18T10:26:02.468202,-0.08,+0.08,-1.43,51.5411701,-0.0155477
2026-06-18T10:26:02.528282,+0.20,-0.29,-0.81,51.5411701,-0.0155477
2026-06-18T10:26:02.619285,+0.03,+0.04,-1.17,51.5411701,-0.0155477
2026-06-18T10:26:02.677714,+0.16,-0.18,-0.90,51.5411701,-0.0155477
2026-06-18T10:26:02.740471,+0.05,+0.10,-0.88,51.5411701,-0.0155477
2026-06-18T10:26:02.795923,+0.20,-0.10,-1.05,51.5411378,-0.0155111
2026-06-18T10:26:02.858077,+0.23,-0.16,-0.64,51.5411378,-0.0155111
2026-06-18T10:26:02.948091,+0.26,-0.17,-1.19,51.5411378,-0.0155111
2026-06-18T10:26:03.006516,+0.20,-0.31,-0.98,51.5411378,-0.0155111
2026-06-18T10:26:03.096730,+0.24,-0.31,-1.11,51.5411378,-0.0155111
2026-06-18T10:26:03.127893,+0.11,-0.10,-0.76,51.5411378,-0.0155111
2026-06-18T10:26:03.185931,+0.25,-0.25,-1.27,51.5411378,-0.0155111
2026-06-18T10:26:03.276606,+0.02,-0.05,-0.79,51.5411378,-0.0155111
2026-06-18T10:26:03.336793,+0.08,-0.07,-1.10,51.5411378,-0.0155111
2026-06-18T10:26:03.398458,+0.11,-0.19,-0.86,51.5411378,-0.0155111
2026-06-18T10:26:03.456237,-0.01,+0.22,-1.05,51.5411378,-0.0155111
2026-06-18T10:26:03.518513,+0.17,-0.21,-0.84,51.5411378,-0.0155111
2026-06-18T10:26:03.608019,-0.19,+0.24,-1.68,51.5411378,-0.0155111
2026-06-18T10:26:03.666811,+0.34,-0.41,-0.70,51.5411378,-0.0155111
2026-06-18T10:26:03.727456,+0.01,+0.03,-1.22,51.5411378,-0.0155111
2026-06-18T10:26:03.785274,+0.05,-0.22,-0.83,51.5411378,-0.0155111
2026-06-18T10:26:03.846998,+0.11,-0.18,-1.21,51.5411051,-0.0154747
2026-06-18T10:26:03.938516,+0.20,-0.14,-0.90,51.5411051,-0.0154747
2026-06-18T10:26:03.996890,+0.17,-0.43,-1.20,51.5411051,-0.0154747
2026-06-18T10:26:04.056264,+0.23,-0.24,-1.02,51.5411051,-0.0154747
2026-06-18T10:26:04.117797,+0.22,-0.30,-1.00,51.5411051,-0.0154747
2026-06-18T10:26:04.179728,-0.05,+0.10,-1.05,51.5411051,-0.0154747
2026-06-18T10:26:04.266737,+0.21,-0.21,-0.94,51.5411051,-0.0154747
2026-06-18T10:26:04.327415,+0.13,-0.11,-0.87,51.5411051,-0.0154747
2026-06-18T10:26:04.389606,+0.10,-0.19,-1.20,51.5411051,-0.0154747
2026-06-18T10:26:04.446828,+0.06,-0.08,-1.21,51.5411051,-0.0154747
2026-06-18T10:26:04.538717,+0.03,-0.09,-0.87,51.5411051,-0.0154747
2026-06-18T10:26:04.597834,+0.19,-0.10,-0.80,51.5411051,-0.0154747
2026-06-18T10:26:04.657202,+0.17,-0.02,-0.99,51.5411051,-0.0154747
2026-06-18T10:26:04.717157,+0.22,-0.25,-0.90,51.5411051,-0.0154747
2026-06-18T10:26:04.805324,+0.23,-0.29,-0.81,51.541073,-0.0154388
2026-06-18T10:26:04.866656,+0.10,-0.16,-0.98,51.541073,-0.0154388
2026-06-18T10:26:04.927302,+0.07,+0.03,-1.09,51.541073,-0.0154388
2026-06-18T10:26:04.989773,+0.14,-0.11,-1.00,51.541073,-0.0154388
2026-06-18T10:26:05.048101,+0.07,-0.14,-1.07,51.541073,-0.0154388
2026-06-18T10:26:05.136348,+0.31,-0.39,-0.77,51.541073,-0.0154388
2026-06-18T10:26:05.197292,+0.29,-0.32,-0.95,51.541073,-0.0154388
2026-06-18T10:26:05.257941,+0.11,-0.16,-0.82,51.541073,-0.0154388
2026-06-18T10:26:05.319616,+0.16,-0.23,-0.91,51.541073,-0.0154388
2026-06-18T10:26:05.380813,+0.22,-0.13,-1.00,51.541073,-0.0154388
2026-06-18T10:26:05.467284,+0.07,-0.12,-0.97,51.541073,-0.0154388
2026-06-18T10:26:05.529475,+0.05,-0.17,-1.18,51.541073,-0.0154388
2026-06-18T10:26:05.589829,+0.14,-0.09,-0.91,51.541073,-0.0154388
2026-06-18T10:26:05.646908,+0.08,-0.06,-1.24,51.541073,-0.0154388
2026-06-18T10:26:05.710539,+0.07,-0.13,-1.01,51.541073,-0.0154388
2026-06-18T10:26:05.797286,+0.04,-0.15,-0.93,51.541073,-0.0154388
2026-06-18T10:26:05.856332,+0.16,-0.15,-1.06,51.541042,-0.0154013
2026-06-18T10:26:05.916901,+0.09,-0.15,-1.08,51.541042,-0.0154013
2026-06-18T10:26:05.976962,+0.16,-0.20,-0.88,51.541042,-0.0154013
2026-06-18T10:26:06.041196,+0.06,-0.16,-1.15,51.541042,-0.0154013
2026-06-18T10:26:06.129394,+0.11,-0.09,-1.09,51.541042,-0.0154013
2026-06-18T10:26:06.186825,+0.08,-0.15,-0.91,51.541042,-0.0154013
2026-06-18T10:26:06.248234,+0.10,-0.16,-1.90,51.541042,-0.0154013
2026-06-18T10:26:06.308840,+0.08,-0.07,-0.99,51.541042,-0.0154013
2026-06-18T10:26:06.367036,+0.15,-0.28,-1.07,51.541042,-0.0154013
2026-06-18T10:26:06.460010,+0.25,-0.33,-0.72,51.541042,-0.0154013
2026-06-18T10:26:06.518563,-0.04,+0.02,-1.20,51.541042,-0.0154013
2026-06-18T10:26:06.577099,+0.24,-0.26,-0.64,51.541042,-0.0154013
2026-06-18T10:26:06.636401,+0.13,-0.12,-0.82,51.541042,-0.0154013
2026-06-18T10:26:06.730549,+0.08,-0.05,-0.96,51.541042,-0.0154013
2026-06-18T10:26:06.784601,+0.08,-0.21,-1.01,51.541042,-0.0154013
2026-06-18T10:26:06.849039,+0.15,-0.20,-0.83,51.5410113,-0.0153657
2026-06-18T10:26:06.907062,+0.13,-0.09,-0.86,51.5410113,-0.0153657
2026-06-18T10:26:06.971147,+0.09,+0.01,-1.05,51.5410113,-0.0153657
2026-06-18T10:26:07.057188,+0.21,-0.12,-0.84,51.5410113,-0.0153657
2026-06-18T10:26:07.117282,+0.17,-0.25,-0.88,51.5410113,-0.0153657
2026-06-18T10:26:07.180242,+0.15,-0.17,-0.73,51.5410113,-0.0153657
2026-06-18T10:26:07.237903,+0.21,-0.17,-0.81,51.5410113,-0.0153657
2026-06-18T10:26:07.299007,+0.01,-0.11,-1.26,51.5410113,-0.0153657
2026-06-18T10:26:07.386325,+0.15,-0.20,-0.81,51.5410113,-0.0153657
2026-06-18T10:26:07.447599,+0.10,-0.16,-1.00,51.5410113,-0.0153657
2026-06-18T10:26:07.509590,-0.04,-0.05,-1.11,51.5410113,-0.0153657
2026-06-18T10:26:07.567967,+0.30,-0.34,-0.96,51.5410113,-0.0153657
2026-06-18T10:26:07.629992,+0.09,-0.09,-1.21,51.5410113,-0.0153657
2026-06-18T10:26:07.717854,+0.06,-0.09,-1.00,51.5410113,-0.0153657
2026-06-18T10:26:07.779734,+0.16,-0.16,-0.86,51.5410113,-0.0153657
2026-06-18T10:26:07.835725,+0.12,-0.16,-0.92,51.5409815,-0.0153298
2026-06-18T10:26:07.897859,+0.01,+0.01,-1.22,51.5409815,-0.0153298
2026-06-18T10:26:07.956700,+0.24,-0.32,-0.87,51.5409815,-0.0153298
2026-06-18T10:26:08.048484,+0.03,+0.00,-1.34,51.5409815,-0.0153298
2026-06-18T10:26:08.105254,+0.18,-0.25,-0.71,51.5409815,-0.0153298
2026-06-18T10:26:08.169793,+0.26,-0.36,-1.04,51.5409815,-0.0153298
2026-06-18T10:26:08.227316,+0.06,+0.15,-1.04,51.5409815,-0.0153298
2026-06-18T10:26:08.286268,+0.13,-0.28,-0.85,51.5409815,-0.0153298
2026-06-18T10:26:08.380188,+0.13,-0.10,-0.75,51.5409815,-0.0153298
2026-06-18T10:26:08.438361,+0.10,-0.17,-0.94,51.5409815,-0.0153298
2026-06-18T10:26:08.499761,+0.28,-0.35,-0.85,51.5409815,-0.0153298
2026-06-18T10:26:08.557783,+0.10,-0.13,-0.70,51.5409815,-0.0153298
2026-06-18T10:26:08.648392,+0.22,-0.16,-1.07,51.5409815,-0.0153298
2026-06-18T10:26:08.706348,+0.06,-0.15,-0.69,51.5409815,-0.0153298
2026-06-18T10:26:08.772404,-0.07,-0.02,-1.55,51.5409815,-0.0153298
2026-06-18T10:26:08.826195,+0.28,-0.38,-0.56,51.5409521,-0.0152928
2026-06-18T10:26:08.892320,+0.21,-0.25,-0.71,51.5409521,-0.0152928
2026-06-18T10:26:08.979075,+0.22,-0.14,-0.69,51.5409521,-0.0152928
2026-06-18T10:26:09.038333,+0.01,+0.02,-1.39,51.5409521,-0.0152928
2026-06-18T10:26:09.097422,+0.19,-0.11,-1.00,51.5409521,-0.0152928
2026-06-18T10:26:09.158500,+0.06,-0.34,-0.67,51.5409521,-0.0152928
2026-06-18T10:26:09.217936,+0.19,+0.07,-0.77,51.5409521,-0.0152928
2026-06-18T10:26:09.306036,+0.12,-0.13,-1.10,51.5409521,-0.0152928
2026-06-18T10:26:09.366120,+0.09,-0.19,-1.38,51.5409521,-0.0152928
2026-06-18T10:26:09.432276,+0.30,-0.37,-0.55,51.5409521,-0.0152928
2026-06-18T10:26:09.490587,+0.17,-0.27,-0.61,51.5409521,-0.0152928
2026-06-18T10:26:09.547538,+0.03,-0.11,-0.97,51.5409521,-0.0152928
2026-06-18T10:26:09.640969,+0.40,-0.31,-1.26,51.5409521,-0.0152928
2026-06-18T10:26:09.697589,+0.04,-0.01,-1.23,51.5409521,-0.0152928
2026-06-18T10:26:09.759740,+0.09,-0.20,-0.83,51.5409521,-0.0152928
2026-06-18T10:26:09.817013,-0.01,-0.03,-1.00,51.5409228,-0.0152561
2026-06-18T10:26:09.909291,-0.14,+0.22,-1.30,51.5409228,-0.0152561
2026-06-18T10:26:09.967384,+0.14,-0.14,-1.33,51.5409228,-0.0152561
2026-06-18T10:26:10.027292,+0.13,-0.38,-1.11,51.5409228,-0.0152561
2026-06-18T10:26:10.088524,+0.20,-0.22,-0.93,51.5409228,-0.0152561
2026-06-18T10:26:10.147434,+0.19,-0.15,-1.03,51.5409228,-0.0152561
2026-06-18T10:26:10.241357,+0.12,-0.14,-1.18,51.5409228,-0.0152561
2026-06-18T10:26:10.296345,+0.16,-0.17,-0.60,51.5409228,-0.0152561
2026-06-18T10:26:10.358003,+0.18,-0.24,-0.78,51.5409228,-0.0152561
2026-06-18T10:26:10.418911,+0.04,-0.08,-1.08,51.5409228,-0.0152561
2026-06-18T10:26:10.481663,+0.22,-0.28,-1.03,51.5409228,-0.0152561
2026-06-18T10:26:10.566612,+0.12,-0.13,-0.55,51.5409228,-0.0152561
2026-06-18T10:26:10.629424,+0.11,+0.05,-0.87,51.5409228,-0.0152561
2026-06-18T10:26:10.689787,+0.36,-0.30,-0.91,51.5409228,-0.0152561
2026-06-18T10:26:10.750076,+0.18,-0.25,-0.81,51.5409228,-0.0152561
2026-06-18T10:26:10.836430,+0.09,-0.33,-1.13,51.5408929,-0.0152181
2026-06-18T10:26:10.896867,+0.35,-0.24,-1.22,51.5408929,-0.0152181
2026-06-18T10:26:10.956424,+0.04,-0.16,-0.91,51.5408929,-0.0152181
2026-06-18T10:26:11.021211,+0.07,+0.00,-0.94,51.5408929,-0.0152181
2026-06-18T10:26:11.077833,+0.16,-0.20,-1.13,51.5408929,-0.0152181
2026-06-18T10:26:11.170118,+0.17,-0.23,-1.06,51.5408929,-0.0152181
2026-06-18T10:26:11.226836,+0.18,-0.14,-0.94,51.5408929,-0.0152181
2026-06-18T10:26:11.289234,+0.09,-0.11,-1.06,51.5408929,-0.0152181
2026-06-18T10:26:11.350023,+0.16,-0.23,-0.86,51.5408929,-0.0152181
2026-06-18T10:26:11.408479,+0.23,-0.23,-1.11,51.5408929,-0.0152181
2026-06-18T10:26:11.500784,+0.22,-0.33,-0.60,51.5408929,-0.0152181
2026-06-18T10:26:11.557744,+0.06,-0.09,-1.08,51.5408929,-0.0152181
2026-06-18T10:26:11.618071,+0.08,-0.14,-1.09,51.5408929,-0.0152181
2026-06-18T10:26:11.677433,+0.11,-0.10,-1.11,51.5408929,-0.0152181
2026-06-18T10:26:11.736743,-0.04,-0.02,-0.84,51.5408929,-0.0152181
2026-06-18T10:26:11.825517,+0.17,-0.36,-1.17,51.540863,-0.0151824
2026-06-18T10:26:11.889060,+0.12,-0.11,-1.00,51.540863,-0.0151824
2026-06-18T10:26:11.947292,+0.19,-0.28,-1.17,51.540863,-0.0151824
2026-06-18T10:26:12.010828,+0.08,-0.21,-1.41,51.540863,-0.0151824
2026-06-18T10:26:12.067061,+0.08,-0.08,-0.93,51.540863,-0.0151824
2026-06-18T10:26:12.158858,+0.11,-0.23,-1.24,51.540863,-0.0151824
2026-06-18T10:26:12.218109,+0.05,+0.07,-1.05,51.540863,-0.0151824
2026-06-18T10:26:12.278905,+0.20,-0.20,-0.95,51.540863,-0.0151824
2026-06-18T10:26:12.341489,+0.09,-0.09,-0.88,51.540863,-0.0151824
2026-06-18T10:26:12.399772,+0.07,-0.08,-1.29,51.540863,-0.0151824
2026-06-18T10:26:12.486985,+0.19,-0.31,-0.94,51.540863,-0.0151824
2026-06-18T10:26:12.546371,+0.13,-0.20,-1.02,51.540863,-0.0151824
2026-06-18T10:26:12.607051,+0.14,-0.20,-0.68,51.540863,-0.0151824
2026-06-18T10:26:12.668802,+0.18,-0.13,-0.73,51.540863,-0.0151824
2026-06-18T10:26:12.730067,+0.26,-0.17,-0.75,51.540863,-0.0151824
2026-06-18T10:26:12.815776,+0.08,+0.08,-0.87,51.540832,-0.0151474
2026-06-18T10:26:12.878234,+0.22,-0.39,-0.95,51.540832,-0.0151474
2026-06-18T10:26:12.938112,+0.23,-0.21,-0.61,51.540832,-0.0151474
2026-06-18T10:26:13.002447,-0.03,+0.18,-1.25,51.540832,-0.0151474
2026-06-18T10:26:13.088202,+0.04,-0.19,-1.11,51.540832,-0.0151474
2026-06-18T10:26:13.146374,+0.17,-0.28,-0.99,51.540832,-0.0151474
2026-06-18T10:26:13.210623,+0.11,-0.09,-0.94,51.540832,-0.0151474
2026-06-18T10:26:13.269677,+0.07,-0.07,-1.27,51.540832,-0.0151474
2026-06-18T10:26:13.326832,+0.17,-0.25,-1.32,51.540832,-0.0151474
2026-06-18T10:26:13.416804,+0.05,-0.06,-1.06,51.540832,-0.0151474
2026-06-18T10:26:13.477471,+0.10,-0.19,-0.79,51.540832,-0.0151474
2026-06-18T10:26:13.537816,+0.24,-0.37,-0.88,51.540832,-0.0151474
2026-06-18T10:26:13.598575,+0.10,-0.16,-1.14,51.540832,-0.0151474
2026-06-18T10:26:13.656094,+0.19,-0.24,-1.02,51.540832,-0.0151474
2026-06-18T10:26:13.749156,+0.11,-0.23,-0.83,51.540832,-0.0151474
2026-06-18T10:26:13.805036,-0.19,+0.17,-0.74,51.540832,-0.0151474
2026-06-18T10:26:13.874221,+0.29,-0.25,-0.87,51.5408019,-0.0151117
2026-06-18T10:26:13.931592,+0.08,-0.05,-1.12,51.5408019,-0.0151117
2026-06-18T10:26:13.986360,+0.15,-0.19,-1.09,51.5408019,-0.0151117
2026-06-18T10:26:14.078355,+0.25,-0.42,-1.07,51.5408019,-0.0151117
2026-06-18T10:26:14.137918,-0.17,+0.24,-1.82,51.5408019,-0.0151117
2026-06-18T10:26:14.198229,-0.01,+0.19,-1.52,51.5408019,-0.0151117
2026-06-18T10:26:14.258664,+0.51,-0.71,-0.47,51.5408019,-0.0151117
2026-06-18T10:26:14.321285,-0.07,+0.19,-0.87,51.5408019,-0.0151117
2026-06-18T10:26:14.407757,+0.04,-0.02,-0.97,51.5408019,-0.0151117
2026-06-18T10:26:14.468313,+0.43,-0.50,-0.82,51.5408019,-0.0151117
2026-06-18T10:26:14.529365,-0.01,+0.05,-1.26,51.5408019,-0.0151117
2026-06-18T10:26:14.587690,+0.00,-0.08,-0.91,51.5408019,-0.0151117
2026-06-18T10:26:14.648731,+0.23,-0.21,-1.03,51.5408019,-0.0151117
2026-06-18T10:26:14.740387,+0.14,-0.07,-0.86,51.5408019,-0.0151117
2026-06-18T10:26:14.798154,+0.23,-0.27,-0.77,51.5407735,-0.0150739
2026-06-18T10:26:14.858092,+0.24,-0.28,-0.94,51.5407735,-0.0150739
2026-06-18T10:26:14.951932,+0.24,-0.24,-0.98,51.5407735,-0.0150739
2026-06-18T10:26:15.006985,+0.23,-0.27,-0.56,51.5407735,-0.0150739
2026-06-18T10:26:15.067153,+0.14,-0.17,-0.94,51.5407735,-0.0150739
2026-06-18T10:26:15.129544,-0.05,-0.05,-0.85,51.5407735,-0.0150739
2026-06-18T10:26:15.187778,+0.11,-0.31,-1.39,51.5407735,-0.0150739
2026-06-18T10:26:15.278538,+0.04,+0.03,-0.98,51.5407735,-0.0150739
2026-06-18T10:26:15.339592,+0.07,-0.07,-1.00,51.5407735,-0.0150739
2026-06-18T10:26:15.399849,+0.24,-0.18,-0.94,51.5407735,-0.0150739
2026-06-18T10:26:15.456115,+0.05,+0.06,-1.10,51.5407735,-0.0150739
2026-06-18T10:26:15.519135,+0.16,-0.24,-1.20,51.5407735,-0.0150739
2026-06-18T10:26:15.610303,+0.24,-0.26,-0.61,51.5407735,-0.0150739
2026-06-18T10:26:15.669872,+0.07,-0.14,-1.02,51.5407735,-0.0150739
2026-06-18T10:26:15.728902,+0.25,-0.21,-0.76,51.5407735,-0.0150739
2026-06-18T10:26:15.785995,-0.04,-0.01,-1.11,51.5407735,-0.0150739
2026-06-18T10:26:15.847772,+0.05,-0.07,-1.38,51.5407457,-0.0150345
2026-06-18T10:26:15.940138,+0.48,-0.52,+0.12,51.5407457,-0.0150345
2026-06-18T10:26:15.999464,-0.02,+0.43,-1.38,51.5407457,-0.0150345
2026-06-18T10:26:16.055726,+0.25,-0.31,-1.17,51.5407457,-0.0150345
2026-06-18T10:26:16.119963,+0.31,-0.21,-0.98,51.5407457,-0.0150345
2026-06-18T10:26:16.178954,-0.02,+0.03,-0.51,51.5407457,-0.0150345
2026-06-18T10:26:16.270365,+0.35,-0.28,-1.06,51.5407457,-0.0150345
2026-06-18T10:26:16.327572,+0.33,-0.29,-1.15,51.5407457,-0.0150345
2026-06-18T10:26:16.387759,+0.17,-0.16,-0.74,51.5407457,-0.0150345
2026-06-18T10:26:16.445691,+0.35,-0.38,-0.89,51.5407457,-0.0150345
2026-06-18T10:26:16.508051,+0.09,-0.11,-0.96,51.5407457,-0.0150345
2026-06-18T10:26:16.601016,+0.08,-0.19,-0.88,51.5407457,-0.0150345
2026-06-18T10:26:16.657644,+0.16,-0.22,-1.08,51.5407457,-0.0150345
2026-06-18T10:26:16.716486,+0.11,-0.22,-0.85,51.5407457,-0.0150345
2026-06-18T10:26:16.779045,+0.14,-0.10,-1.05,51.5407457,-0.0150345
2026-06-18T10:26:16.835163,+0.08,-0.02,-0.86,51.5407205,-0.0149917
2026-06-18T10:26:16.927021,+0.18,-0.14,-0.85,51.5407205,-0.0149917
2026-06-18T10:26:16.987163,+0.16,-0.14,-1.24,51.5407205,-0.0149917
2026-06-18T10:26:17.049039,+0.17,-0.25,-0.96,51.5407205,-0.0149917
2026-06-18T10:26:17.108535,+0.19,-0.15,-1.08,51.5407205,-0.0149917
2026-06-18T10:26:17.202169,+0.07,-0.10,-0.94,51.5407205,-0.0149917
2026-06-18T10:26:17.256281,+0.04,-0.13,-1.34,51.5407205,-0.0149917
2026-06-18T10:26:17.316603,+0.08,-0.06,-0.98,51.5407205,-0.0149917
2026-06-18T10:26:17.377936,+0.19,-0.30,-1.18,51.5407205,-0.0149917
2026-06-18T10:26:17.438613,+0.04,-0.05,-1.16,51.5407205,-0.0149917
2026-06-18T10:26:17.527098,+0.22,-0.33,-0.71,51.5407205,-0.0149917
2026-06-18T10:26:17.586601,+0.11,-0.17,-0.84,51.5407205,-0.0149917
2026-06-18T10:26:17.646832,+0.02,+0.00,-1.32,51.5407205,-0.0149917
2026-06-18T10:26:17.709973,+0.22,-0.23,-1.01,51.5407205,-0.0149917
2026-06-18T10:26:17.767784,+0.01,+0.03,-1.01,51.5407205,-0.0149917
2026-06-18T10:26:17.860186,+0.08,-0.07,-0.85,51.540697,-0.0149468
2026-06-18T10:26:17.916492,+0.29,-0.34,-1.14,51.540697,-0.0149468
2026-06-18T10:26:17.977101,+0.10,-0.14,-1.03,51.540697,-0.0149468
2026-06-18T10:26:18.037506,+0.17,-0.14,-1.07,51.540697,-0.0149468
2026-06-18T10:26:18.098877,+0.40,-0.10,-0.69,51.540697,-0.0149468
2026-06-18T10:26:18.192846,+0.16,-0.36,-1.02,51.540697,-0.0149468
2026-06-18T10:26:18.246379,+0.04,+0.27,-1.37,51.540697,-0.0149468
2026-06-18T10:26:18.307418,+0.25,-0.25,-1.28,51.540697,-0.0149468
2026-06-18T10:26:18.369630,-0.03,-0.13,-0.82,51.540697,-0.0149468
2026-06-18T10:26:18.432361,+0.27,-0.34,-1.18,51.540697,-0.0149468
2026-06-18T10:26:18.518051,+0.23,-0.34,-1.07,51.540697,-0.0149468
2026-06-18T10:26:18.577302,+0.17,-0.41,-1.20,51.540697,-0.0149468
2026-06-18T10:26:18.636681,+0.16,-0.20,-0.92,51.540697,-0.0149468
2026-06-18T10:26:18.698250,+0.05,-0.15,-1.19,51.540697,-0.0149468
2026-06-18T10:26:18.760739,+0.14,-0.21,-0.96,51.540697,-0.0149468
2026-06-18T10:26:18.848032,+0.02,-0.02,-0.97,51.5406763,-0.0149
2026-06-18T10:26:18.919181,+0.19,-0.34,-0.93,51.5406763,-0.0149
2026-06-18T10:26:18.968882,+0.15,-0.07,-1.18,51.5406763,-0.0149
2026-06-18T10:26:19.030764,+0.20,-0.18,-0.94,51.5406763,-0.0149
2026-06-18T10:26:19.120534,+0.20,-0.22,-1.14,51.5406763,-0.0149
2026-06-18T10:26:19.176996,+0.21,-0.22,-0.99,51.5406763,-0.0149
2026-06-18T10:26:19.238714,+0.09,-0.17,-0.64,51.5406763,-0.0149
2026-06-18T10:26:19.298075,+0.17,-0.21,-1.26,51.5406763,-0.0149
2026-06-18T10:26:19.358804,+0.11,-0.11,-0.96,51.5406763,-0.0149
2026-06-18T10:26:19.451116,+0.10,-0.13,-1.13,51.5406763,-0.0149
2026-06-18T10:26:19.508270,+0.04,-0.02,-0.99,51.5406763,-0.0149
2026-06-18T10:26:19.569884,+0.31,-0.41,-0.97,51.5406763,-0.0149
2026-06-18T10:26:19.629382,+0.11,-0.11,-0.72,51.5406763,-0.0149
2026-06-18T10:26:19.688438,+0.28,-0.31,-0.96,51.5406763,-0.0149
2026-06-18T10:26:19.776023,+0.22,-0.37,-1.11,51.5406763,-0.0149
2026-06-18T10:26:19.837388,-0.15,+0.18,-1.22,51.540657,-0.0148512
2026-06-18T10:26:19.896630,+0.13,-0.21,-0.72,51.540657,-0.0148512
2026-06-18T10:26:19.957432,+0.11,-0.15,-0.72,51.540657,-0.0148512
2026-06-18T10:26:20.020952,+0.13,-0.04,-1.31,51.540657,-0.0148512
2026-06-18T10:26:20.108179,+0.11,-0.20,-1.03,51.540657,-0.0148512
2026-06-18T10:26:20.167260,+0.22,-0.23,-0.91,51.540657,-0.0148512
2026-06-18T10:26:20.228415,+0.18,-0.15,-0.65,51.540657,-0.0148512
2026-06-18T10:26:20.287493,+0.01,-0.02,-1.20,51.540657,-0.0148512
2026-06-18T10:26:20.350336,+0.27,-0.27,-1.00,51.540657,-0.0148512
2026-06-18T10:26:20.440378,+0.17,-0.17,-0.65,51.540657,-0.0148512
2026-06-18T10:26:20.499013,+0.24,-0.15,-0.82,51.540657,-0.0148512
2026-06-18T10:26:20.557328,+0.27,-0.43,-0.77,51.540657,-0.0148512
2026-06-18T10:26:20.623315,+0.16,-0.25,-0.83,51.540657,-0.0148512
2026-06-18T10:26:20.677266,+0.05,-0.14,-0.80,51.540657,-0.0148512
2026-06-18T10:26:20.766733,+0.32,-0.45,-0.79,51.540657,-0.0148512
2026-06-18T10:26:20.827368,-0.16,+0.35,-0.90,51.5406387,-0.0148026
2026-06-18T10:26:20.890455,+0.18,-0.33,-0.67,51.5406387,-0.0148026
2026-06-18T10:26:20.948241,+0.12,+0.18,-0.87,51.5406387,-0.0148026
2026-06-18T10:26:21.041704,-0.10,+0.01,-0.84,51.5406387,-0.0148026
2026-06-18T10:26:21.096806,+0.53,-0.41,-1.00,51.5406387,-0.0148026
2026-06-18T10:26:21.158685,+0.12,-0.42,-0.85,51.5406387,-0.0148026
2026-06-18T10:26:21.220098,-0.00,+0.13,-0.98,51.5406387,-0.0148026
2026-06-18T10:26:21.306246,+0.17,-0.15,-0.96,51.5406387,-0.0148026
2026-06-18T10:26:21.368490,+0.24,-0.20,-1.40,51.5406387,-0.0148026
2026-06-18T10:26:21.429760,+0.25,-0.24,-0.94,51.5406387,-0.0148026
2026-06-18T10:26:21.487071,+0.16,-0.19,-0.84,51.5406387,-0.0148026
2026-06-18T10:26:21.547846,-0.06,+0.04,-0.96,51.5406387,-0.0148026
2026-06-18T10:26:21.638939,+0.25,-0.28,-0.68,51.5406387,-0.0148026
2026-06-18T10:26:21.700944,+0.18,-0.22,-0.76,51.5406387,-0.0148026
2026-06-18T10:26:21.760586,+0.24,-0.42,-0.86,51.5406387,-0.0148026
2026-06-18T10:26:21.818980,+0.15,-0.19,-0.90,51.5406206,-0.0147533
2026-06-18T10:26:21.877874,+0.02,+0.04,-1.12,51.5406206,-0.0147533
2026-06-18T10:26:21.970206,+0.13,-0.29,-1.00,51.5406206,-0.0147533
2026-06-18T10:26:22.027303,+0.05,+0.06,-1.17,51.5406206,-0.0147533
2026-06-18T10:26:22.089715,-0.04,-0.07,-1.42,51.5406206,-0.0147533
2026-06-18T10:26:22.144933,+0.25,-0.31,-0.85,51.5406206,-0.0147533
2026-06-18T10:26:22.208969,+0.19,-0.17,-0.98,51.5406206,-0.0147533
2026-06-18T10:26:22.295491,+0.14,-0.20,-1.02,51.5406206,-0.0147533
2026-06-18T10:26:22.354908,+0.33,-0.41,-0.87,51.5406206,-0.0147533
2026-06-18T10:26:22.417917,+0.14,-0.04,-1.08,51.5406206,-0.0147533
2026-06-18T10:26:22.476144,+0.14,-0.18,-0.96,51.5406206,-0.0147533
2026-06-18T10:26:22.537700,+0.04,-0.02,-0.93,51.5406206,-0.0147533
2026-06-18T10:26:22.626221,+0.04,-0.09,-0.84,51.5406206,-0.0147533
2026-06-18T10:26:22.688786,+0.08,-0.14,-0.98,51.5406206,-0.0147533
2026-06-18T10:26:22.752341,+0.17,-0.18,-1.01,51.5406206,-0.0147533
2026-06-18T10:26:22.805601,+0.19,-0.26,-1.00,51.5406021,-0.014705
2026-06-18T10:26:22.867488,+0.05,-0.04,-0.85,51.5406021,-0.014705
2026-06-18T10:26:22.959456,+0.20,-0.23,-1.02,51.5406021,-0.014705
2026-06-18T10:26:23.016988,+0.07,-0.16,-0.99,51.5406021,-0.014705
2026-06-18T10:26:23.077328,+0.15,-0.20,-0.99,51.5406021,-0.014705
2026-06-18T10:26:23.141459,+0.25,-0.30,-0.91,51.5406021,-0.014705
2026-06-18T10:26:23.227572,+0.19,-0.10,-0.81,51.5406021,-0.014705
2026-06-18T10:26:23.288349,+0.09,-0.01,-1.07,51.5406021,-0.014705
2026-06-18T10:26:23.350670,+0.16,-0.15,-0.83,51.5406021,-0.014705
2026-06-18T10:26:23.406282,+0.15,-0.20,-0.99,51.5406021,-0.014705
2026-06-18T10:26:23.469371,-0.06,+0.01,-1.13,51.5406021,-0.014705
2026-06-18T10:26:23.559040,+0.11,-0.14,-1.05,51.5406021,-0.014705
2026-06-18T10:26:23.621519,+0.16,-0.10,-1.11,51.5406021,-0.014705
2026-06-18T10:26:23.678897,+0.17,-0.21,-1.00,51.5406021,-0.014705
2026-06-18T10:26:23.740623,+0.10,-0.11,-1.11,51.5406021,-0.014705
2026-06-18T10:26:23.795639,+0.28,-0.37,-0.78,51.5406021,-0.014705
2026-06-18T10:26:23.890606,+0.16,-0.14,-0.86,51.5405847,-0.0146566
2026-06-18T10:26:23.948397,+0.15,-0.18,-0.76,51.5405847,-0.0146566
2026-06-18T10:26:24.008085,+0.04,-0.06,-1.23,51.5405847,-0.0146566
2026-06-18T10:26:24.068570,+0.04,-0.19,-0.94,51.5405847,-0.0146566
2026-06-18T10:26:24.129473,+0.13,-0.07,-1.18,51.5405847,-0.0146566
2026-06-18T10:26:24.218651,+0.08,-0.16,-0.84,51.5405847,-0.0146566
2026-06-18T10:26:24.280204,+0.33,-0.45,-0.50,51.5405847,-0.0146566
2026-06-18T10:26:24.337155,-0.10,+0.19,-1.24,51.5405847,-0.0146566
2026-06-18T10:26:24.400495,+0.17,-0.27,-1.03,51.5405847,-0.0146566
2026-06-18T10:26:24.457880,+0.11,-0.18,-0.81,51.5405847,-0.0146566
2026-06-18T10:26:24.546749,+0.01,-0.15,-0.72,51.5405847,-0.0146566
2026-06-18T10:26:24.606585,+0.34,-0.45,-1.27,51.5405847,-0.0146566
2026-06-18T10:26:24.667018,+0.22,-0.09,-0.89,51.5405847,-0.0146566
2026-06-18T10:26:24.730961,+0.23,-0.31,-0.94,51.5405847,-0.0146566
2026-06-18T10:26:24.787024,+0.32,-0.11,-1.01,51.5405847,-0.0146566
2026-06-18T10:26:24.878072,+0.15,-0.10,-1.07,51.5405648,-0.0146097
2026-06-18T10:26:24.937528,+0.09,-0.06,-1.04,51.5405648,-0.0146097
2026-06-18T10:26:24.998221,+0.13,-0.12,-1.14,51.5405648,-0.0146097
2026-06-18T10:26:25.056334,+0.01,+0.03,-1.27,51.5405648,-0.0146097
2026-06-18T10:26:25.151141,+0.07,-0.18,-0.87,51.5405648,-0.0146097
2026-06-18T10:26:25.206784,-0.01,-0.09,-1.31,51.5405648,-0.0146097
2026-06-18T10:26:25.268024,+0.09,-0.18,-1.13,51.5405648,-0.0146097
2026-06-18T10:26:25.327591,-0.15,+0.22,-1.26,51.5405648,-0.0146097
2026-06-18T10:26:25.417596,+0.06,-0.33,-1.38,51.5405648,-0.0146097
2026-06-18T10:26:25.479741,+0.03,-0.09,-0.99,51.5405648,-0.0146097
2026-06-18T10:26:25.536698,+0.07,-0.25,-0.87,51.5405648,-0.0146097
2026-06-18T10:26:25.597208,+0.21,-0.28,-0.49,51.5405648,-0.0146097
2026-06-18T10:26:25.657002,+0.13,+0.02,-0.88,51.5405648,-0.0146097
2026-06-18T10:26:25.750706,+0.08,-0.08,-1.20,51.5405648,-0.0146097
2026-06-18T10:26:25.811508,+0.16,-0.23,-0.86,51.5405405,-0.014567
2026-06-18T10:26:25.866771,+0.20,-0.08,-0.80,51.5405405,-0.014567
2026-06-18T10:26:25.928438,+0.12,-0.29,-1.14,51.5405405,-0.014567
2026-06-18T10:26:25.986772,+0.10,-0.13,-1.11,51.5405405,-0.014567
2026-06-18T10:26:26.077874,+0.10,-0.23,-0.98,51.5405405,-0.014567
2026-06-18T10:26:26.140612,+0.22,-0.19,-0.66,51.5405405,-0.014567
2026-06-18T10:26:26.201803,+0.12,-0.16,-1.06,51.5405405,-0.014567
2026-06-18T10:26:26.260152,+0.17,-0.18,-0.91,51.5405405,-0.014567
2026-06-18T10:26:26.321026,+0.39,-0.52,-0.58,51.5405405,-0.014567
2026-06-18T10:26:26.409663,+0.10,-0.06,-1.01,51.5405405,-0.014567
2026-06-18T10:26:26.466392,+0.16,-0.08,-1.01,51.5405405,-0.014567
2026-06-18T10:26:26.530058,+0.21,-0.17,-0.84,51.5405405,-0.014567
2026-06-18T10:26:26.587480,-0.06,-0.16,-1.07,51.5405405,-0.014567
2026-06-18T10:26:26.646496,+0.12,-0.17,-0.81,51.5405405,-0.014567
2026-06-18T10:26:26.739160,+0.08,-0.08,-1.03,51.5405405,-0.014567
2026-06-18T10:26:26.797407,+0.08,-0.13,-1.05,51.5405405,-0.014567
2026-06-18T10:26:26.856163,+0.07,-0.05,-1.10,51.5405152,-0.0145231
2026-06-18T10:26:26.921154,+0.11,-0.12,-1.11,51.5405152,-0.0145231
2026-06-18T10:26:26.980118,+0.13,-0.23,-0.97,51.5405152,-0.0145231
2026-06-18T10:26:27.071021,+0.17,-0.22,-0.92,51.5405152,-0.0145231
2026-06-18T10:26:27.127525,+0.19,-0.18,-0.89,51.5405152,-0.0145231
2026-06-18T10:26:27.187555,+0.11,-0.08,-1.11,51.5405152,-0.0145231
2026-06-18T10:26:27.245996,+0.19,-0.20,-0.98,51.5405152,-0.0145231
2026-06-18T10:26:27.337932,+0.11,-0.24,-0.89,51.5405152,-0.0145231
2026-06-18T10:26:27.396457,+0.19,-0.24,-0.79,51.5405152,-0.0145231
2026-06-18T10:26:27.460079,+0.19,-0.22,-0.99,51.5405152,-0.0145231
2026-06-18T10:26:27.520057,+0.12,-0.30,-0.94,51.5405152,-0.0145231
2026-06-18T10:26:27.579546,+0.19,-0.18,-0.95,51.5405152,-0.0145231
2026-06-18T10:26:27.665919,+0.16,-0.21,-0.76,51.5405152,-0.0145231
2026-06-18T10:26:27.727228,+0.06,+0.07,-0.74,51.5405152,-0.0145231
2026-06-18T10:26:27.785748,+0.13,-0.10,-1.07,51.5405152,-0.0145231
2026-06-18T10:26:27.846203,+0.01,-0.14,-0.83,51.5404914,-0.0144798
2026-06-18T10:26:27.909985,+0.34,-0.32,-1.03,51.5404914,-0.0144798
2026-06-18T10:26:27.996237,-0.05,-0.02,-2.01,51.5404914,-0.0144798
2026-06-18T10:26:28.055438,+0.23,-0.34,-0.71,51.5404914,-0.0144798
2026-06-18T10:26:28.117951,+0.14,-0.10,-0.78,51.5404914,-0.0144798
2026-06-18T10:26:28.177606,+0.09,-0.26,-0.95,51.5404914,-0.0144798
2026-06-18T10:26:28.240410,+0.08,-0.25,-1.54,51.5404914,-0.0144798
2026-06-18T10:26:28.331107,+0.19,-0.22,-1.05,51.5404914,-0.0144798
2026-06-18T10:26:28.390161,+0.23,-0.31,-0.67,51.5404914,-0.0144798
2026-06-18T10:26:28.447377,+0.17,-0.15,-0.92,51.5404914,-0.0144798
2026-06-18T10:26:28.506191,+0.09,-0.05,-1.15,51.5404914,-0.0144798
2026-06-18T10:26:28.570753,+0.14,-0.17,-0.94,51.5404914,-0.0144798
2026-06-18T10:26:28.655810,+0.10,-0.24,-0.68,51.5404914,-0.0144798
2026-06-18T10:26:28.715759,+0.16,-0.14,-0.83,51.5404914,-0.0144798
2026-06-18T10:26:28.783600,+0.22,-0.25,-0.82,51.5404914,-0.0144798
2026-06-18T10:26:28.836397,+0.02,-0.07,-1.10,51.540468,-0.0144361
2026-06-18T10:26:28.901574,+0.11,-0.24,-0.97,51.540468,-0.0144361
2026-06-18T10:26:28.989626,+0.13,-0.15,-1.13,51.540468,-0.0144361
2026-06-18T10:26:29.045766,+0.21,-0.25,-1.00,51.540468,-0.0144361
2026-06-18T10:26:29.107662,+0.12,-0.23,-0.85,51.540468,-0.0144361
2026-06-18T10:26:29.171392,-0.06,+0.01,-1.24,51.540468,-0.0144361
2026-06-18T10:26:29.255903,+0.12,-0.19,-0.99,51.540468,-0.0144361
2026-06-18T10:26:29.320746,+0.16,-0.24,-1.22,51.540468,-0.0144361
2026-06-18T10:26:29.377128,+0.19,-0.09,-0.78,51.540468,-0.0144361
2026-06-18T10:26:29.438428,+0.13,-0.26,-0.95,51.540468,-0.0144361
2026-06-18T10:26:29.503283,+0.21,-0.15,-1.02,51.540468,-0.0144361
2026-06-18T10:26:29.588097,+0.15,-0.27,-0.97,51.540468,-0.0144361
2026-06-18T10:26:29.647856,+0.16,-0.06,-0.88,51.540468,-0.0144361
2026-06-18T10:26:29.707596,+0.36,-0.06,-0.78,51.540468,-0.0144361
2026-06-18T10:26:29.769851,-0.02,-0.02,-1.23,51.540468,-0.0144361
2026-06-18T10:26:29.825929,+0.06,-0.15,-0.92,51.5404463,-0.014395
2026-06-18T10:26:29.916949,+0.29,-0.19,-0.70,51.5404463,-0.014395
2026-06-18T10:26:29.980746,-0.04,+0.04,-1.11,51.5404463,-0.014395
2026-06-18T10:26:30.038415,+0.24,-0.38,-0.69,51.5404463,-0.014395
2026-06-18T10:26:30.096273,+0.15,-0.11,-0.97,51.5404463,-0.014395
2026-06-18T10:26:30.158953,-0.05,+0.01,-1.11,51.5404463,-0.014395
2026-06-18T10:26:30.250595,+0.25,-0.37,-1.01,51.5404463,-0.014395
2026-06-18T10:26:30.309104,+0.08,-0.06,-0.98,51.5404463,-0.014395
2026-06-18T10:26:30.370446,+0.05,-0.13,-1.12,51.5404463,-0.014395
2026-06-18T10:26:30.430097,+0.04,-0.17,-0.90,51.5404463,-0.014395
2026-06-18T10:26:30.488275,+0.17,-0.25,-0.81,51.5404463,-0.014395
2026-06-18T10:26:30.582309,+0.07,-0.05,-1.11,51.5404463,-0.014395
2026-06-18T10:26:30.640262,+0.10,-0.06,-1.20,51.5404463,-0.014395
2026-06-18T10:26:30.700652,+0.24,-0.24,-0.84,51.5404463,-0.014395
2026-06-18T10:26:30.761027,+0.05,-0.05,-1.04,51.5404463,-0.014395
2026-06-18T10:26:30.816093,+0.14,-0.23,-0.89,51.5404252,-0.0143517
2026-06-18T10:26:30.909444,+0.05,-0.12,-1.25,51.5404252,-0.0143517
2026-06-18T10:26:30.966798,+0.08,-0.03,-1.09,51.5404252,-0.0143517
2026-06-18T10:26:31.029096,+0.17,-0.31,-1.10,51.5404252,-0.0143517
2026-06-18T10:26:31.088705,+0.15,-0.21,-0.86,51.5404252,-0.0143517
2026-06-18T10:26:31.180084,+0.29,-0.39,-0.92,51.5404252,-0.0143517
2026-06-18T10:26:31.237261,+0.32,-0.29,-1.16,51.5404252,-0.0143517
2026-06-18T10:26:31.300080,+0.13,-0.13,-1.03,51.5404252,-0.0143517
2026-06-18T10:26:31.358602,+0.28,-0.23,-0.77,51.5404252,-0.0143517
2026-06-18T10:26:31.448650,+0.13,-0.17,-1.04,51.5404252,-0.0143517
2026-06-18T10:26:31.506606,+0.08,+0.01,-0.86,51.5404252,-0.0143517
2026-06-18T10:26:31.569333,+0.13,-0.14,-1.23,51.5404252,-0.0143517
2026-06-18T10:26:31.629775,+0.09,-0.10,-0.94,51.5404252,-0.0143517
2026-06-18T10:26:31.686326,+0.22,-0.23,-0.91,51.5404252,-0.0143517
2026-06-18T10:26:31.806992,+0.01,+0.07,-1.19,51.5404252,-0.0143517
2026-06-18T10:26:31.836127,+0.27,-0.36,-1.06,51.5404071,-0.014305
2026-06-18T10:26:31.897700,+0.12,-0.13,-0.76,51.5404071,-0.014305
2026-06-18T10:26:31.960386,+0.21,-0.18,-1.04,51.5404071,-0.014305
2026-06-18T10:26:32.020558,+0.12,-0.09,-1.08,51.5404071,-0.014305
2026-06-18T10:26:32.106354,-0.16,+0.13,-1.78,51.5404071,-0.014305
2026-06-18T10:26:32.177397,+0.15,-0.32,-0.78,51.5404071,-0.014305
2026-06-18T10:26:32.227557,+0.06,-0.05,-1.18,51.5404071,-0.014305
2026-06-18T10:26:32.289879,+0.19,-0.25,-0.93,51.5404071,-0.014305
2026-06-18T10:26:32.349809,+0.37,-0.48,-1.03,51.5404071,-0.014305
2026-06-18T10:26:32.438444,+0.11,-0.19,-1.22,51.5404071,-0.014305
2026-06-18T10:26:32.495622,+0.17,-0.11,-0.47,51.5404071,-0.014305
2026-06-18T10:26:32.559669,+0.16,-0.12,-0.89,51.5404071,-0.014305
2026-06-18T10:26:32.615787,+0.09,-0.13,-0.97,51.5404071,-0.014305
2026-06-18T10:26:32.676942,+0.22,-0.31,-0.82,51.5404071,-0.014305
2026-06-18T10:26:32.768561,-0.02,+0.15,-0.94,51.5404071,-0.014305
2026-06-18T10:26:32.828030,+0.01,-0.18,-1.19,51.5403885,-0.0142576
2026-06-18T10:26:32.888938,+0.37,-0.27,-1.01,51.5403885,-0.0142576
2026-06-18T10:26:32.948655,+0.05,-0.07,-1.03,51.5403885,-0.0142576
2026-06-18T10:26:33.007391,+0.26,-0.25,-0.74,51.5403885,-0.0142576
2026-06-18T10:26:33.101467,+0.28,-0.21,-0.87,51.5403885,-0.0142576
2026-06-18T10:26:33.157426,+0.20,-0.26,-0.88,51.5403885,-0.0142576
2026-06-18T10:26:33.220498,+0.07,-0.16,-0.64,51.5403885,-0.0142576
2026-06-18T10:26:33.277947,+0.14,-0.16,-0.73,51.5403885,-0.0142576
2026-06-18T10:26:33.370633,+0.03,-0.11,-1.02,51.5403885,-0.0142576
2026-06-18T10:26:33.428493,+0.22,-0.24,-0.71,51.5403885,-0.0142576
2026-06-18T10:26:33.490114,+0.24,-0.31,-0.69,51.5403885,-0.0142576
2026-06-18T10:26:33.550767,-0.03,+0.08,-1.08,51.5403885,-0.0142576
2026-06-18T10:26:33.608967,+0.10,-0.16,-1.04,51.5403885,-0.0142576
2026-06-18T10:26:33.698956,+0.13,-0.17,-0.85,51.5403885,-0.0142576
2026-06-18T10:26:33.759451,+0.27,-0.32,-0.82,51.5403885,-0.0142576
2026-06-18T10:26:33.848568,+0.16,-0.09,-0.92,51.5403678,-0.01421
2026-06-18T10:26:33.875512,+0.18,-0.15,-0.93,51.5403678,-0.01421
2026-06-18T10:26:33.936121,+0.12,-0.24,-0.91,51.5403678,-0.01421
2026-06-18T10:26:34.030599,+0.16,-0.14,-0.91,51.5403678,-0.01421
2026-06-18T10:26:34.086650,+0.02,+0.01,-0.86,51.5403678,-0.01421
2026-06-18T10:26:34.149353,+0.10,-0.21,-1.28,51.5403678,-0.01421
2026-06-18T10:26:34.210017,+0.26,-0.30,-1.02,51.5403678,-0.01421
2026-06-18T10:26:34.272160,+0.03,+0.04,-0.95,51.5403678,-0.01421
2026-06-18T10:26:34.361708,+0.23,-0.38,-0.87,51.5403678,-0.01421
2026-06-18T10:26:34.420538,+0.14,-0.09,-1.19,51.5403678,-0.01421
2026-06-18T10:26:34.480777,-0.02,-0.03,-1.20,51.5403678,-0.01421
2026-06-18T10:26:34.538926,+0.09,-0.15,-1.11,51.5403678,-0.01421
2026-06-18T10:26:34.599527,+0.32,-0.32,-0.59,51.5403678,-0.01421
2026-06-18T10:26:34.685981,+0.12,-0.06,-0.86,51.5403678,-0.01421
2026-06-18T10:26:34.745970,+0.17,-0.11,-1.29,51.5403678,-0.01421
2026-06-18T10:26:34.806244,+0.13,-0.15,-1.05,51.5403484,-0.0141606
2026-06-18T10:26:34.899764,+0.11,-0.02,-1.17,51.5403484,-0.0141606
2026-06-18T10:26:34.925314,+0.18,-0.34,-0.77,51.5403484,-0.0141606
2026-06-18T10:26:35.020248,+0.07,+0.02,-1.00,51.5403484,-0.0141606
2026-06-18T10:26:35.079188,+0.15,-0.10,-1.22,51.5403484,-0.0141606
2026-06-18T10:26:35.142128,-0.01,-0.04,-1.00,51.5403484,-0.0141606
2026-06-18T10:26:35.196736,+0.31,-0.31,-0.91,51.5403484,-0.0141606
2026-06-18T10:26:35.261804,+0.04,-0.15,-0.98,51.5403484,-0.0141606
2026-06-18T10:26:35.347642,+0.02,-0.09,-1.00,51.5403484,-0.0141606
2026-06-18T10:26:35.409433,+0.20,-0.25,-1.19,51.5403484,-0.0141606
2026-06-18T10:26:35.466783,+0.13,-0.09,-0.65,51.5403484,-0.0141606
2026-06-18T10:26:35.530632,+0.08,-0.14,-1.05,51.5403484,-0.0141606
2026-06-18T10:26:35.619695,+0.19,-0.21,-0.78,51.5403484,-0.0141606
2026-06-18T10:26:35.676520,+0.20,-0.20,-0.97,51.5403484,-0.0141606
2026-06-18T10:26:35.737715,+0.13,-0.13,-0.97,51.5403484,-0.0141606
2026-06-18T10:26:35.798038,+0.19,-0.30,-0.86,51.5403271,-0.0141147
2026-06-18T10:26:35.861040,+0.20,-0.15,-0.77,51.5403271,-0.0141147
2026-06-18T10:26:35.950132,+0.11,-0.31,-0.98,51.5403271,-0.0141147
2026-06-18T10:26:36.010527,+0.22,-0.22,-0.97,51.5403271,-0.0141147
2026-06-18T10:26:36.069755,+0.11,-0.11,-1.03,51.5403271,-0.0141147
2026-06-18T10:26:36.127986,+0.17,-0.19,-0.82,51.5403271,-0.0141147
2026-06-18T10:26:36.190747,+0.12,-0.12,-1.15,51.5403271,-0.0141147
2026-06-18T10:26:36.279638,+0.11,-0.15,-1.04,51.5403271,-0.0141147
2026-06-18T10:26:36.339003,+0.11,-0.15,-1.00,51.5403271,-0.0141147
2026-06-18T10:26:36.401680,+0.32,-0.41,-1.09,51.5403271,-0.0141147
2026-06-18T10:26:36.489818,+0.08,+0.03,-1.13,51.5403271,-0.0141147
2026-06-18T10:26:36.515340,+0.22,-0.30,-1.05,51.5403271,-0.0141147
2026-06-18T10:26:36.609174,+0.03,-0.07,-1.16,51.5403271,-0.0141147
2026-06-18T10:26:36.670381,-0.08,+0.13,-1.04,51.5403271,-0.0141147
2026-06-18T10:26:36.727121,+0.13,-0.18,-1.29,51.5403271,-0.0141147
2026-06-18T10:26:36.785438,+0.12,-0.10,-1.14,51.5403271,-0.0141147
2026-06-18T10:26:36.847675,+0.24,-0.21,-0.65,51.5403037,-0.0140664
2026-06-18T10:26:36.937472,+0.19,-0.31,-1.09,51.5403037,-0.0140664
2026-06-18T10:26:37.000297,+0.15,-0.14,-0.98,51.5403037,-0.0140664
2026-06-18T10:26:37.057936,+0.01,+0.01,-1.11,51.5403037,-0.0140664
2026-06-18T10:26:37.118202,+0.05,-0.12,-0.87,51.5403037,-0.0140664
2026-06-18T10:26:37.180204,+0.09,-0.10,-1.15,51.5403037,-0.0140664
2026-06-18T10:26:37.269887,+0.16,-0.29,-1.02,51.5403037,-0.0140664
2026-06-18T10:26:37.330815,+0.06,-0.01,-1.19,51.5403037,-0.0140664
2026-06-18T10:26:37.389896,+0.09,-0.17,-0.71,51.5403037,-0.0140664
2026-06-18T10:26:37.448433,+0.15,-0.16,-1.07,51.5403037,-0.0140664
2026-06-18T10:26:37.570195,-0.06,-0.04,-1.09,51.5403037,-0.0140664
2026-06-18T10:26:37.599563,+0.12,-0.16,-1.04,51.5403037,-0.0140664
2026-06-18T10:26:37.656006,+0.25,-0.25,-0.86,51.5403037,-0.0140664
2026-06-18T10:26:37.719495,+0.00,+0.08,-1.26,51.5403037,-0.0140664
2026-06-18T10:26:37.778584,+0.18,-0.04,-1.21,51.5403037,-0.0140664
2026-06-18T10:26:37.869670,+0.08,-0.22,-1.08,51.5402778,-0.0140255
2026-06-18T10:26:37.930177,+0.08,-0.03,-1.14,51.5402778,-0.0140255
2026-06-18T10:26:37.987303,+0.01,-0.20,-0.98,51.5402778,-0.0140255
2026-06-18T10:26:38.046917,+0.28,-0.17,-1.08,51.5402778,-0.0140255
2026-06-18T10:26:38.108834,+0.15,-0.22,-0.98,51.5402778,-0.0140255
2026-06-18T10:26:38.229533,+0.15,-0.20,-1.07,51.5402778,-0.0140255
2026-06-18T10:26:38.255704,+0.22,-0.21,-1.06,51.5402778,-0.0140255
2026-06-18T10:26:38.320573,+0.03,-0.26,-0.85,51.5402778,-0.0140255
2026-06-18T10:26:38.379905,+0.18,-0.19,-1.08,51.5402778,-0.0140255
2026-06-18T10:26:38.438525,+0.26,-0.26,-0.98,51.5402778,-0.0140255
2026-06-18T10:26:38.529745,+0.05,-0.06,-1.24,51.5402778,-0.0140255
2026-06-18T10:26:38.587530,+0.13,-0.24,-0.83,51.5402778,-0.0140255
2026-06-18T10:26:38.649608,+0.18,-0.12,-1.03,51.5402778,-0.0140255
2026-06-18T10:26:38.708430,+0.17,-0.09,-0.85,51.5402778,-0.0140255
2026-06-18T10:26:38.770251,+0.24,-0.32,-0.82,51.5402778,-0.0140255
2026-06-18T10:26:38.856921,+0.31,-0.34,-0.80,51.5402467,-0.0139894
2026-06-18T10:26:38.925616,+0.06,-0.05,-0.99,51.5402467,-0.0139894
2026-06-18T10:26:38.979760,+0.22,-0.21,-0.42,51.5402467,-0.0139894
2026-06-18T10:26:39.036578,+0.13,-0.01,-0.97,51.5402467,-0.0139894
2026-06-18T10:26:39.098703,+0.01,-0.09,-1.01,51.5402467,-0.0139894
2026-06-18T10:26:39.190974,+0.19,-0.35,-1.35,51.5402467,-0.0139894
2026-06-18T10:26:39.248081,+0.04,+0.02,-1.11,51.5402467,-0.0139894
2026-06-18T10:26:39.308089,+0.22,-0.48,-1.02,51.5402467,-0.0139894
2026-06-18T10:26:39.370350,+0.09,-0.22,-0.94,51.5402467,-0.0139894
2026-06-18T10:26:39.458208,+0.17,-0.14,-1.12,51.5402467,-0.0139894
2026-06-18T10:26:39.517178,+0.03,-0.06,-1.06,51.5402467,-0.0139894
2026-06-18T10:26:39.580555,+0.15,-0.20,-0.98,51.5402467,-0.0139894
2026-06-18T10:26:39.639017,+0.22,-0.18,-1.04,51.5402467,-0.0139894
2026-06-18T10:26:39.699497,+0.19,-0.14,-0.83,51.5402467,-0.0139894
2026-06-18T10:26:39.785799,+0.15,-0.26,-1.34,51.5402467,-0.0139894
2026-06-18T10:26:39.846592,+0.08,-0.10,-0.83,51.5402118,-0.0139614
2026-06-18T10:26:39.909285,+0.34,-0.41,-0.78,51.5402118,-0.0139614
2026-06-18T10:26:39.969479,+0.11,-0.19,-0.94,51.5402118,-0.0139614
2026-06-18T10:26:40.029480,+0.19,-0.15,-0.79,51.5402118,-0.0139614
2026-06-18T10:26:40.121215,+0.17,-0.16,-0.92,51.5402118,-0.0139614
2026-06-18T10:26:40.178185,+0.07,-0.06,-1.09,51.5402118,-0.0139614
2026-06-18T10:26:40.239581,+0.17,-0.24,-0.73,51.5402118,-0.0139614
2026-06-18T10:26:40.301241,+0.21,-0.25,-0.94,51.5402118,-0.0139614
2026-06-18T10:26:40.358565,-0.13,+0.10,-1.79,51.5402118,-0.0139614
2026-06-18T10:26:40.447346,+0.15,-0.42,-1.23,51.5402118,-0.0139614
2026-06-18T10:26:40.506064,+0.05,-0.10,-0.89,51.5402118,-0.0139614
2026-06-18T10:26:40.569312,-0.12,+0.12,-1.01,51.5402118,-0.0139614
2026-06-18T10:26:40.627335,+0.37,-0.47,-1.01,51.5402118,-0.0139614
2026-06-18T10:26:40.688442,+0.29,-0.17,-0.77,51.5402118,-0.0139614
2026-06-18T10:26:40.777318,+0.27,-0.24,-0.98,51.5402118,-0.0139614
2026-06-18T10:26:40.837909,+0.08,-0.14,-1.03,51.5401765,-0.0139365
2026-06-18T10:26:40.900728,+0.16,-0.16,-0.97,51.5401765,-0.0139365
2026-06-18T10:26:40.959647,+0.17,-0.24,-0.86,51.5401765,-0.0139365
2026-06-18T10:26:41.020757,+0.15,-0.09,-1.20,51.5401765,-0.0139365
2026-06-18T10:26:41.106687,+0.12,-0.21,-0.97,51.5401765,-0.0139365
2026-06-18T10:26:41.168813,+0.18,-0.25,-1.03,51.5401765,-0.0139365
2026-06-18T10:26:41.229408,+0.08,-0.13,-0.94,51.5401765,-0.0139365
2026-06-18T10:26:41.291519,+0.15,-0.21,-0.94,51.5401765,-0.0139365
2026-06-18T10:26:41.351964,+0.09,-0.17,-0.94,51.5401765,-0.0139365
2026-06-18T10:26:41.439676,+0.19,-0.14,-1.13,51.5401765,-0.0139365
2026-06-18T10:26:41.497484,+0.17,-0.21,-0.84,51.5401765,-0.0139365
2026-06-18T10:26:41.556265,+0.11,-0.18,-1.16,51.5401765,-0.0139365
2026-06-18T10:26:41.645948,+0.03,-0.15,-0.91,51.5401765,-0.0139365
2026-06-18T10:26:41.708065,+0.02,-0.01,-1.44,51.5401765,-0.0139365
2026-06-18T10:26:41.769650,+0.12,-0.18,-0.97,51.5401765,-0.0139365
2026-06-18T10:26:41.825844,+0.06,-0.08,-0.92,51.5401397,-0.0139155
2026-06-18T10:26:41.889536,+0.02,-0.12,-1.23,51.5401397,-0.0139155
2026-06-18T10:26:41.978877,+0.13,-0.28,-1.18,51.5401397,-0.0139155
2026-06-18T10:26:42.037848,+0.10,-0.04,-0.82,51.5401397,-0.0139155
2026-06-18T10:26:42.099788,+0.12,-0.25,-1.02,51.5401397,-0.0139155
2026-06-18T10:26:42.160671,+0.06,-0.08,-1.21,51.5401397,-0.0139155
2026-06-18T10:26:42.218300,+0.16,-0.20,-1.14,51.5401397,-0.0139155
2026-06-18T10:26:42.310370,+0.13,-0.28,-0.74,51.5401397,-0.0139155
2026-06-18T10:26:42.369033,+0.17,-0.05,-1.07,51.5401397,-0.0139155
2026-06-18T10:26:42.429115,+0.25,-0.32,-1.17,51.5401397,-0.0139155
2026-06-18T10:26:42.488063,+0.15,-0.31,-0.95,51.5401397,-0.0139155
2026-06-18T10:26:42.546284,+0.11,-0.13,-0.78,51.5401397,-0.0139155
2026-06-18T10:26:42.640843,+0.22,-0.20,-0.65,51.5401397,-0.0139155
2026-06-18T10:26:42.697142,+0.20,-0.22,-1.14,51.5401397,-0.0139155
2026-06-18T10:26:42.787834,+0.00,-0.04,-1.08,51.5401397,-0.0139155
2026-06-18T10:26:42.817748,+0.16,-0.30,-0.40,51.5401073,-0.0138997
2026-06-18T10:26:42.879433,+0.14,-0.06,-0.64,51.5401073,-0.0138997
2026-06-18T10:26:42.971076,+0.04,-0.03,-1.59,51.5401073,-0.0138997
2026-06-18T10:26:43.027140,+0.23,-0.16,-0.96,51.5401073,-0.0138997
2026-06-18T10:26:43.089227,+0.04,-0.22,-1.02,51.5401073,-0.0138997
2026-06-18T10:26:43.147585,+0.23,-0.16,-0.66,51.5401073,-0.0138997
2026-06-18T10:26:43.210022,+0.11,-0.08,-1.27,51.5401073,-0.0138997
2026-06-18T10:26:43.297307,+0.19,-0.28,-1.09,51.5401073,-0.0138997
2026-06-18T10:26:43.358413,+0.15,-0.11,-0.98,51.5401073,-0.0138997
2026-06-18T10:26:43.419708,+0.20,-0.25,-0.74,51.5401073,-0.0138997
2026-06-18T10:26:43.479087,+0.10,-0.10,-0.99,51.5401073,-0.0138997
2026-06-18T10:26:43.540904,-0.01,-0.02,-1.11,51.5401073,-0.0138997
2026-06-18T10:26:43.628058,+0.13,-0.33,-0.99,51.5401073,-0.0138997
2026-06-18T10:26:43.688639,+0.29,-0.29,-0.90,51.5401073,-0.0138997
2026-06-18T10:26:43.749594,+0.16,-0.23,-0.88,51.5401073,-0.0138997
2026-06-18T10:26:43.806900,+0.02,+0.00,-1.11,51.5401073,-0.0138997
2026-06-18T10:26:43.898807,+0.16,-0.25,-0.94,51.5400737,-0.0138829
2026-06-18T10:26:43.958930,-0.02,-0.13,-1.16,51.5400737,-0.0138829
2026-06-18T10:26:44.019433,+0.16,-0.10,-1.18,51.5400737,-0.0138829
2026-06-18T10:26:44.109259,+0.28,-0.35,-0.94,51.5400737,-0.0138829
2026-06-18T10:26:44.136885,+0.22,-0.21,-0.98,51.5400737,-0.0138829
2026-06-18T10:26:44.229694,+0.19,-0.22,-0.92,51.5400737,-0.0138829
2026-06-18T10:26:44.291452,-0.04,+0.17,-1.13,51.5400737,-0.0138829
2026-06-18T10:26:44.349308,+0.19,-0.28,-0.85,51.5400737,-0.0138829
2026-06-18T10:26:44.407858,+0.24,-0.15,-0.84,51.5400737,-0.0138829
2026-06-18T10:26:44.468620,+0.09,-0.09,-1.30,51.5400737,-0.0138829
2026-06-18T10:26:44.558192,+0.25,-0.35,-0.65,51.5400737,-0.0138829
2026-06-18T10:26:44.617985,+0.12,+0.08,-0.20,51.5400737,-0.0138829
2026-06-18T10:26:44.678548,-0.10,+0.12,-2.32,51.5400737,-0.0138829
2026-06-18T10:26:44.740106,+0.27,-0.35,-1.09,51.5400737,-0.0138829
2026-06-18T10:26:44.797041,+0.05,-0.10,-1.00,51.5400737,-0.0138829
2026-06-18T10:26:44.919099,+0.03,-0.12,-0.98,51.5400429,-0.0138607
2026-06-18T10:26:44.946680,+0.21,-0.14,-0.96,51.5400429,-0.0138607
2026-06-18T10:26:45.009911,+0.02,+0.11,-1.10,51.5400429,-0.0138607
2026-06-18T10:26:45.066493,+0.15,-0.33,-0.69,51.5400429,-0.0138607
2026-06-18T10:26:45.129675,+0.28,-0.21,-0.75,51.5400429,-0.0138607
2026-06-18T10:26:45.222341,+0.11,-0.17,-0.95,51.5400429,-0.0138607
2026-06-18T10:26:45.280524,+0.18,-0.25,-0.85,51.5400429,-0.0138607
2026-06-18T10:26:45.339591,+0.09,-0.23,-0.75,51.5400429,-0.0138607
2026-06-18T10:26:45.400895,+0.18,-0.32,-0.76,51.5400429,-0.0138607
2026-06-18T10:26:45.456835,+0.30,-0.25,-0.73,51.5400429,-0.0138607
2026-06-18T10:26:45.550435,+0.03,-0.07,-1.20,51.5400429,-0.0138607
2026-06-18T10:26:45.607087,+0.06,-0.22,-0.92,51.5400429,-0.0138607
2026-06-18T10:26:45.668109,+0.03,+0.06,-1.13,51.5400429,-0.0138607
2026-06-18T10:26:45.727509,+0.21,-0.17,-1.02,51.5400429,-0.0138607
2026-06-18T10:26:45.818415,+0.22,-0.22,-0.89,51.5400136,-0.0138432
2026-06-18T10:26:45.879485,+0.11,-0.05,-0.99,51.5400136,-0.0138432
2026-06-18T10:26:45.936376,+0.21,-0.40,-1.04,51.5400136,-0.0138432
2026-06-18T10:26:46.001261,+0.17,-0.10,-1.08,51.5400136,-0.0138432
2026-06-18T10:26:46.057373,+0.13,-0.13,-1.05,51.5400136,-0.0138432
2026-06-18T10:26:46.151014,+0.23,-0.30,-0.78,51.5400136,-0.0138432
2026-06-18T10:26:46.207044,+0.25,-0.27,-0.81,51.5400136,-0.0138432
2026-06-18T10:26:46.270031,+0.06,-0.18,-1.01,51.5400136,-0.0138432
2026-06-18T10:26:46.331199,+0.11,-0.10,-0.94,51.5400136,-0.0138432
2026-06-18T10:26:46.419069,+0.17,-0.23,-0.75,51.5400136,-0.0138432
2026-06-18T10:26:46.477272,+0.02,+0.01,-1.11,51.5400136,-0.0138432
2026-06-18T10:26:46.540454,+0.08,-0.06,-1.04,51.5400136,-0.0138432
2026-06-18T10:26:46.599445,+0.06,-0.08,-1.09,51.5400136,-0.0138432
2026-06-18T10:26:46.656981,+0.12,-0.11,-0.97,51.5400136,-0.0138432
2026-06-18T10:26:46.751675,+0.22,-0.18,-1.10,51.5400136,-0.0138432
2026-06-18T10:26:46.805709,+0.13,-0.16,-1.07,51.5399846,-0.0138261
2026-06-18T10:26:46.869242,+0.14,-0.12,-1.12,51.5399846,-0.0138261
2026-06-18T10:26:46.930166,+0.21,-0.30,-0.89,51.5399846,-0.0138261
2026-06-18T10:26:46.989108,+0.03,-0.08,-1.23,51.5399846,-0.0138261
2026-06-18T10:26:47.079796,+0.11,-0.05,-1.07,51.5399846,-0.0138261
2026-06-18T10:26:47.136870,+0.20,-0.23,-0.75,51.5399846,-0.0138261
2026-06-18T10:26:47.201856,+0.16,-0.18,-0.88,51.5399846,-0.0138261
2026-06-18T10:26:47.261305,+0.32,-0.46,-0.90,51.5399846,-0.0138261
2026-06-18T10:26:47.320304,+0.13,-0.19,-0.87,51.5399846,-0.0138261
2026-06-18T10:26:47.410570,+0.14,-0.13,-0.83,51.5399846,-0.0138261
2026-06-18T10:26:47.497646,+0.28,-0.30,-0.85,51.5399846,-0.0138261
2026-06-18T10:26:47.528965,+0.18,-0.10,-0.81,51.5399846,-0.0138261
2026-06-18T10:26:47.595529,+0.09,-0.05,-0.92,51.5399846,-0.0138261
2026-06-18T10:26:47.646514,+0.07,-0.22,-1.39,51.5399846,-0.0138261
2026-06-18T10:26:47.734857,+0.15,-0.18,-0.87,51.5399846,-0.0138261
2026-06-18T10:26:47.798393,+0.20,-0.19,-1.01,51.5399552,-0.0138042
2026-06-18T10:26:47.857210,+0.11,-0.13,-0.93,51.5399552,-0.0138042
2026-06-18T10:26:47.921094,+0.14,-0.16,-1.03,51.5399552,-0.0138042
2026-06-18T10:26:48.006194,+0.29,-0.38,-0.93,51.5399552,-0.0138042
2026-06-18T10:26:48.066250,+0.14,-0.16,-0.86,51.5399552,-0.0138042
2026-06-18T10:26:48.129013,+0.11,-0.02,-1.06,51.5399552,-0.0138042
2026-06-18T10:26:48.189892,+0.13,-0.30,-0.89,51.5399552,-0.0138042
2026-06-18T10:26:48.251927,+0.11,-0.04,-1.11,51.5399552,-0.0138042
2026-06-18T10:26:48.339777,+0.06,-0.09,-1.00,51.5399552,-0.0138042
2026-06-18T10:26:48.401815,+0.21,-0.34,-0.89,51.5399552,-0.0138042
2026-06-18T10:26:48.457606,+0.10,-0.16,-1.16,51.5399552,-0.0138042
2026-06-18T10:26:48.520956,+0.07,-0.19,-1.16,51.5399552,-0.0138042
2026-06-18T10:26:48.579630,+0.13,-0.20,-0.81,51.5399552,-0.0138042
2026-06-18T10:26:48.670486,+0.03,-0.03,-1.03,51.5399552,-0.0138042
2026-06-18T10:26:48.728799,+0.14,-0.16,-1.05,51.5399552,-0.0138042
2026-06-18T10:26:48.785341,+0.20,-0.29,-1.06,51.5399552,-0.0138042
2026-06-18T10:26:48.850829,+0.12,-0.02,-0.85,51.5399185,-0.0137811
2026-06-18T10:26:48.911165,+0.25,-0.25,-0.95,51.5399185,-0.0137811
2026-06-18T10:26:49.000688,+0.20,-0.23,-0.79,51.5399185,-0.0137811
2026-06-18T10:26:49.057528,+0.05,-0.07,-1.07,51.5399185,-0.0137811
2026-06-18T10:26:49.117183,+0.18,-0.19,-1.03,51.5399185,-0.0137811
2026-06-18T10:26:49.180396,+0.08,-0.08,-0.97,51.5399185,-0.0137811
2026-06-18T10:26:49.240457,+0.06,-0.02,-0.96,51.5399185,-0.0137811
2026-06-18T10:26:49.326035,+0.21,-0.40,-0.88,51.5399185,-0.0137811
2026-06-18T10:26:49.385123,+0.44,-0.63,-0.21,51.5399185,-0.0137811
2026-06-18T10:26:49.448926,+0.00,-0.06,-1.26,51.5399185,-0.0137811
2026-06-18T10:26:49.505284,+0.20,-0.19,-0.98,51.5399185,-0.0137811
2026-06-18T10:26:49.566921,-0.10,+0.06,-1.54,51.5399185,-0.0137811
2026-06-18T10:26:49.658834,+0.01,-0.10,-0.92,51.5399185,-0.0137811
2026-06-18T10:26:49.717726,+0.16,-0.23,-1.07,51.5399185,-0.0137811
2026-06-18T10:26:49.776015,+0.12,+0.10,-0.91,51.5399185,-0.0137811
2026-06-18T10:26:49.836080,+0.21,-0.22,-1.15,51.5398857,-0.0137517
2026-06-18T10:26:49.929644,+0.18,-0.18,-1.02,51.5398857,-0.0137517
2026-06-18T10:26:49.988958,+0.19,-0.35,-1.08,51.5398857,-0.0137517
2026-06-18T10:26:50.051538,+0.12,-0.11,-0.50,51.5398857,-0.0137517
2026-06-18T10:26:50.106876,+0.28,-0.23,-0.69,51.5398857,-0.0137517
2026-06-18T10:26:50.166218,+0.10,-0.12,-0.96,51.5398857,-0.0137517
2026-06-18T10:26:50.258416,-0.01,-0.11,-1.25,51.5398857,-0.0137517
2026-06-18T10:26:50.320159,+0.19,-0.21,-0.75,51.5398857,-0.0137517
2026-06-18T10:26:50.377308,+0.08,-0.13,-0.92,51.5398857,-0.0137517
2026-06-18T10:26:50.439674,-0.02,-0.03,-0.95,51.5398857,-0.0137517
2026-06-18T10:26:50.499258,+0.24,-0.26,-1.00,51.5398857,-0.0137517
2026-06-18T10:26:50.588119,+0.08,+0.01,-1.11,51.5398857,-0.0137517
2026-06-18T10:26:50.648431,+0.26,-0.24,-0.56,51.5398857,-0.0137517
2026-06-18T10:26:50.705244,+0.16,-0.01,-1.20,51.5398857,-0.0137517
2026-06-18T10:26:50.769582,+0.07,-0.15,-1.37,51.5398857,-0.0137517
2026-06-18T10:26:50.825504,+0.15,-0.20,-0.92,51.5398529,-0.0137207
2026-06-18T10:26:50.920841,-0.07,+0.21,-1.08,51.5398529,-0.0137207
2026-06-18T10:26:50.978481,+0.05,-0.05,-1.57,51.5398529,-0.0137207
2026-06-18T10:26:51.041246,+0.14,-0.31,-0.85,51.5398529,-0.0137207
2026-06-18T10:26:51.099957,+0.38,-0.44,-0.78,51.5398529,-0.0137207
2026-06-18T10:26:51.161703,-0.03,+0.15,-0.73,51.5398529,-0.0137207
2026-06-18T10:26:51.249707,+0.13,-0.11,-0.93,51.5398529,-0.0137207
2026-06-18T10:26:51.311619,-0.01,-0.02,-1.22,51.5398529,-0.0137207
2026-06-18T10:26:51.367583,+0.17,-0.28,-0.84,51.5398529,-0.0137207
2026-06-18T10:26:51.427754,-0.02,+0.07,-0.92,51.5398529,-0.0137207
2026-06-18T10:26:51.488395,+0.03,-0.10,-0.92,51.5398529,-0.0137207
2026-06-18T10:26:51.580484,+0.18,-0.17,-0.96,51.5398529,-0.0137207
2026-06-18T10:26:51.636373,+0.16,-0.16,-1.12,51.5398529,-0.0137207
2026-06-18T10:26:51.699053,+0.09,-0.10,-1.04,51.5398529,-0.0137207
2026-06-18T10:26:51.759720,+0.18,-0.25,-0.62,51.5398529,-0.0137207
2026-06-18T10:26:51.846594,+0.11,+0.03,-1.03,51.539822,-0.0136899
2026-06-18T10:26:51.909171,+0.31,-0.36,-0.82,51.539822,-0.0136899
2026-06-18T10:26:51.971402,+0.09,-0.07,-1.09,51.539822,-0.0136899
2026-06-18T10:26:52.028357,+0.20,-0.27,-0.97,51.539822,-0.0136899
2026-06-18T10:26:52.089145,+0.13,-0.04,-1.05,51.539822,-0.0136899
2026-06-18T10:26:52.180486,+0.03,-0.03,-1.59,51.539822,-0.0136899
2026-06-18T10:26:52.238260,+0.28,-0.26,-0.46,51.539822,-0.0136899
2026-06-18T10:26:52.295943,+0.29,-0.47,-0.58,51.539822,-0.0136899
2026-06-18T10:26:52.355270,+0.17,-0.23,-1.05,51.539822,-0.0136899
2026-06-18T10:26:52.415121,+0.50,-0.65,+0.33,51.539822,-0.0136899
2026-06-18T10:26:52.508570,+0.19,-0.28,-0.75,51.539822,-0.0136899
2026-06-18T10:26:52.572370,-0.06,+0.21,-1.32,51.539822,-0.0136899
2026-06-18T10:26:52.630161,+0.24,-0.37,-0.82,51.539822,-0.0136899
2026-06-18T10:26:52.689697,+0.17,-0.37,-1.45,51.539822,-0.0136899
2026-06-18T10:26:52.749546,+0.02,-0.12,-1.33,51.539822,-0.0136899
2026-06-18T10:26:52.836597,+0.14,-0.17,-0.91,51.5397926,-0.0136569
2026-06-18T10:26:52.900037,+0.12,-0.06,-0.74,51.5397926,-0.0136569
2026-06-18T10:26:52.957844,+0.29,-0.38,-0.77,51.5397926,-0.0136569
2026-06-18T10:26:53.016837,+0.09,-0.01,-1.06,51.5397926,-0.0136569
2026-06-18T10:26:53.080988,+0.23,-0.18,-0.85,51.5397926,-0.0136569
2026-06-18T10:26:53.167566,+0.12,-0.30,-0.61,51.5397926,-0.0136569
2026-06-18T10:26:53.228872,+0.21,-0.09,-0.97,51.5397926,-0.0136569
2026-06-18T10:26:53.290971,+0.26,-0.16,-0.79,51.5397926,-0.0136569
2026-06-18T10:26:53.351643,+0.16,-0.14,-0.96,51.5397926,-0.0136569
2026-06-18T10:26:53.409591,+0.05,+0.01,-1.15,51.5397926,-0.0136569
2026-06-18T10:26:53.499767,+0.03,-0.11,-1.47,51.5397926,-0.0136569
2026-06-18T10:26:53.557202,+0.20,-0.24,-0.90,51.5397926,-0.0136569
2026-06-18T10:26:53.622506,+0.14,-0.22,-1.05,51.5397926,-0.0136569
2026-06-18T10:26:53.680732,+0.03,-0.10,-1.19,51.5397926,-0.0136569
2026-06-18T10:26:53.740166,+0.24,-0.29,-1.14,51.5397926,-0.0136569
2026-06-18T10:26:53.825754,+0.30,-0.32,-0.87,51.539765,-0.0136231
2026-06-18T10:26:53.891275,+0.05,-0.11,-1.47,51.539765,-0.0136231
2026-06-18T10:26:53.947166,-0.03,+0.02,-1.18,51.539765,-0.0136231
2026-06-18T10:26:54.040314,+0.17,-0.18,-0.92,51.539765,-0.0136231
2026-06-18T10:26:54.095752,-0.01,+0.01,-1.49,51.539765,-0.0136231
2026-06-18T10:26:54.159812,+0.10,-0.11,-0.98,51.539765,-0.0136231
2026-06-18T10:26:54.217406,+0.17,-0.18,-1.01,51.539765,-0.0136231
2026-06-18T10:26:54.279336,-0.30,-0.62,-0.87,51.539765,-0.0136231
2026-06-18T10:26:54.367971,+0.08,-0.12,-0.95,51.539765,-0.0136231
2026-06-18T10:26:54.430437,+0.14,-0.15,-0.88,51.539765,-0.0136231
2026-06-18T10:26:54.490596,+0.48,-0.30,-0.03,51.539765,-0.0136231
2026-06-18T10:26:54.547262,+0.12,-0.25,-0.97,51.539765,-0.0136231
2026-06-18T10:26:54.609395,+0.08,-0.19,-0.73,51.539765,-0.0136231
2026-06-18T10:26:54.701304,+0.14,-0.37,-1.00,51.539765,-0.0136231
2026-06-18T10:26:54.758424,+0.14,-0.35,-0.47,51.539765,-0.0136231
2026-06-18T10:26:54.816529,+0.13,-0.20,-0.93,51.539736,-0.0135849
2026-06-18T10:26:54.880700,+0.01,-0.20,-0.94,51.539736,-0.0135849
2026-06-18T10:26:54.937677,-0.09,+0.06,-0.81,51.539736,-0.0135849
2026-06-18T10:26:55.030582,+0.41,-0.45,+0.46,51.539736,-0.0135849
2026-06-18T10:26:55.088509,+0.03,-0.16,-1.12,51.539736,-0.0135849
2026-06-18T10:26:55.150163,+0.03,-0.18,-1.09,51.539736,-0.0135849
2026-06-18T10:26:55.210411,+0.09,-0.47,+0.30,51.539736,-0.0135849
2026-06-18T10:26:55.271553,+0.12,-0.19,-0.97,51.539736,-0.0135849
2026-06-18T10:26:55.361429,+0.21,-0.51,-0.87,51.539736,-0.0135849
2026-06-18T10:26:55.418357,+0.01,+0.01,-1.15,51.539736,-0.0135849
2026-06-18T10:26:55.480257,+0.15,-0.23,-0.69,51.539736,-0.0135849
2026-06-18T10:26:55.541593,+0.07,+0.00,-0.96,51.539736,-0.0135849
2026-06-18T10:26:55.600995,+0.05,-0.14,-1.07,51.539736,-0.0135849
2026-06-18T10:26:55.690232,+0.12,-0.21,-0.98,51.539736,-0.0135849
2026-06-18T10:26:55.750085,+0.28,-0.47,-0.54,51.539736,-0.0135849
2026-06-18T10:26:55.805489,+0.19,-0.31,-0.59,51.5397055,-0.0135462
2026-06-18T10:26:55.868199,-0.06,-0.19,-1.09,51.5397055,-0.0135462
2026-06-18T10:26:55.960488,+0.05,-0.23,-0.90,51.5397055,-0.0135462
2026-06-18T10:26:56.019636,+0.07,-0.20,-1.17,51.5397055,-0.0135462
2026-06-18T10:26:56.077536,+0.05,-0.16,-1.02,51.5397055,-0.0135462
2026-06-18T10:26:56.138886,+0.10,-0.20,-0.73,51.5397055,-0.0135462
2026-06-18T10:26:56.199692,+0.11,-0.22,-0.91,51.5397055,-0.0135462
2026-06-18T10:26:56.290457,+0.16,-0.26,-0.95,51.5397055,-0.0135462
2026-06-18T10:26:56.347500,+0.10,-0.21,-0.91,51.5397055,-0.0135462
2026-06-18T10:26:56.409179,+0.05,-0.13,-1.07,51.5397055,-0.0135462
2026-06-18T10:26:56.470019,+0.18,-0.26,-0.90,51.5397055,-0.0135462
2026-06-18T10:26:56.531529,-0.05,+0.23,-0.67,51.5397055,-0.0135462
2026-06-18T10:26:56.619299,+0.37,-0.42,-0.81,51.5397055,-0.0135462
2026-06-18T10:26:56.676889,-0.03,-0.09,-1.30,51.5397055,-0.0135462
2026-06-18T10:26:56.741791,+0.17,-0.25,-1.09,51.5397055,-0.0135462
2026-06-18T10:26:56.797632,+0.23,-0.52,-1.11,51.5396729,-0.013507
2026-06-18T10:26:56.856518,-0.02,-0.09,-1.17,51.5396729,-0.013507
2026-06-18T10:26:56.950287,+0.07,-0.04,-0.89,51.5396729,-0.013507
2026-06-18T10:26:57.006511,+0.07,-0.24,-1.07,51.5396729,-0.013507
2026-06-18T10:26:57.068477,+0.10,-0.20,-1.13,51.5396729,-0.013507
2026-06-18T10:26:57.130712,+0.10,-0.18,-0.95,51.5396729,-0.013507
2026-06-18T10:26:57.187054,+0.04,-0.26,-0.97,51.5396729,-0.013507
2026-06-18T10:26:57.280175,+0.12,-0.07,-0.86,51.5396729,-0.013507
2026-06-18T10:26:57.336847,-0.08,-0.00,-0.90,51.5396729,-0.013507
2026-06-18T10:26:57.399400,+0.03,-0.14,-0.94,51.5396729,-0.013507
2026-06-18T10:26:57.457290,+0.20,-0.33,-0.83,51.5396729,-0.013507
2026-06-18T10:26:57.520677,+0.15,-0.29,-0.81,51.5396729,-0.013507
2026-06-18T10:26:57.611059,+0.15,-0.23,-1.17,51.5396729,-0.013507
2026-06-18T10:26:57.666175,+0.09,-0.23,-1.01,51.5396729,-0.013507
2026-06-18T10:26:57.730318,+0.05,-0.22,-0.98,51.5396729,-0.013507
2026-06-18T10:26:57.787439,-0.04,-0.17,-1.14,51.5396729,-0.013507
2026-06-18T10:26:57.849203,+0.02,-0.03,-0.80,51.5396411,-0.0134668
2026-06-18T10:26:57.941906,+0.30,-0.48,-0.69,51.5396411,-0.0134668
2026-06-18T10:26:57.996999,+0.05,-0.08,-0.92,51.5396411,-0.0134668
2026-06-18T10:26:58.057082,+0.08,-0.14,-0.91,51.5396411,-0.0134668
2026-06-18T10:26:58.118391,+0.15,-0.20,-1.10,51.5396411,-0.0134668
2026-06-18T10:26:58.210442,+0.16,-0.19,-1.01,51.5396411,-0.0134668
2026-06-18T10:26:58.267237,+0.20,-0.23,-1.01,51.5396411,-0.0134668
2026-06-18T10:26:58.326558,+0.20,-0.30,-0.95,51.5396411,-0.0134668
2026-06-18T10:26:58.389720,+0.03,-0.08,-1.04,51.5396411,-0.0134668
2026-06-18T10:26:58.448072,+0.06,-0.21,-0.99,51.5396411,-0.0134668
2026-06-18T10:26:58.541565,+0.05,-0.18,-0.74,51.5396411,-0.0134668
2026-06-18T10:26:58.601367,+0.19,-0.45,-1.32,51.5396411,-0.0134668
2026-06-18T10:26:58.656974,+0.02,-0.15,-1.03,51.5396411,-0.0134668
2026-06-18T10:26:58.719920,+0.02,-0.26,-0.94,51.5396411,-0.0134668
2026-06-18T10:26:58.776700,+0.14,-0.09,-0.78,51.5396411,-0.0134668
2026-06-18T10:26:58.867782,+0.13,-0.19,-0.94,51.5396068,-0.0134273
2026-06-18T10:26:58.927280,+0.17,-0.14,-0.86,51.5396068,-0.0134273
2026-06-18T10:26:58.989417,+0.08,-0.20,-0.94,51.5396068,-0.0134273
2026-06-18T10:26:59.047502,+0.18,-0.28,-0.74,51.5396068,-0.0134273
2026-06-18T10:26:59.106989,+0.11,-0.26,-0.94,51.5396068,-0.0134273
2026-06-18T10:26:59.196701,+0.18,-0.21,-0.94,51.5396068,-0.0134273
2026-06-18T10:26:59.255257,+0.03,-0.16,-0.79,51.5396068,-0.0134273
2026-06-18T10:26:59.318187,+0.14,-0.24,-0.99,51.5396068,-0.0134273
2026-06-18T10:26:59.383236,+0.16,-0.32,-0.97,51.5396068,-0.0134273
2026-06-18T10:26:59.435160,+0.06,-0.27,-0.80,51.5396068,-0.0134273
2026-06-18T10:26:59.529955,+0.04,-0.09,-0.92,51.5396068,-0.0134273
2026-06-18T10:26:59.587123,-0.01,-0.04,-1.04,51.5396068,-0.0134273
2026-06-18T10:26:59.650678,+0.01,-0.25,-0.94,51.5396068,-0.0134273
2026-06-18T10:26:59.708230,+0.10,-0.25,-0.92,51.5396068,-0.0134273
2026-06-18T10:26:59.771730,+0.03,-0.19,-1.29,51.5396068,-0.0134273
2026-06-18T10:26:59.856926,-0.09,+0.04,-1.34,51.5395707,-0.0133937
2026-06-18T10:26:59.920123,-0.00,-0.16,-1.28,51.5395707,-0.0133937
2026-06-18T10:26:59.978230,+0.13,-0.28,-0.87,51.5395707,-0.0133937
2026-06-18T10:27:00.070153,+0.18,-0.26,-0.89,51.5395707,-0.0133937
2026-06-18T10:27:00.128689,-0.02,-0.06,-1.16,51.5395707,-0.0133937
2026-06-18T10:27:00.189832,+0.03,-0.20,-1.23,51.5395707,-0.0133937
2026-06-18T10:27:00.247204,+0.19,-0.30,-0.80,51.5395707,-0.0133937
2026-06-18T10:27:00.338960,+0.00,-0.20,-0.71,51.5395707,-0.0133937
2026-06-18T10:27:00.427817,-0.08,-0.07,-1.25,51.5395707,-0.0133937
2026-06-18T10:27:00.458525,-0.01,-0.30,-1.19,51.5395707,-0.0133937
2026-06-18T10:27:00.521170,+0.13,-0.27,-0.60,51.5395707,-0.0133937
2026-06-18T10:27:00.581424,-0.11,+0.08,-1.12,51.5395707,-0.0133937
2026-06-18T10:27:00.638781,+0.18,-0.23,-0.81,51.5395707,-0.0133937
2026-06-18T10:27:00.730878,+0.23,-0.32,-1.00,51.5395707,-0.0133937
2026-06-18T10:27:00.785026,+0.15,-0.35,-1.10,51.5395707,-0.0133937
2026-06-18T10:27:00.850170,+0.27,-0.45,-1.11,51.539533,-0.013366
2026-06-18T10:27:00.911347,+0.08,-0.11,-0.89,51.539533,-0.013366
2026-06-18T10:27:00.969472,+0.11,-0.40,-0.84,51.539533,-0.013366
2026-06-18T10:27:01.056594,+0.02,+0.00,-1.05,51.539533,-0.013366
2026-06-18T10:27:01.117839,+0.05,-0.12,-0.93,51.539533,-0.013366
2026-06-18T10:27:01.179290,+0.19,-0.32,-0.74,51.539533,-0.013366
2026-06-18T10:27:01.241151,+0.03,-0.15,-1.08,51.539533,-0.013366
2026-06-18T10:27:01.301894,-0.02,-0.18,-1.12,51.539533,-0.013366
2026-06-18T10:27:01.389410,+0.14,-0.28,-0.92,51.539533,-0.013366
2026-06-18T10:27:01.449264,+0.17,-0.31,-1.07,51.539533,-0.013366
2026-06-18T10:27:01.508113,+0.00,-0.11,-1.16,51.539533,-0.013366
2026-06-18T10:27:01.568641,-0.04,-0.14,-1.14,51.539533,-0.013366
2026-06-18T10:27:01.629302,-0.06,-0.14,-0.83,51.539533,-0.013366
2026-06-18T10:27:01.718671,+0.16,-0.17,-0.76,51.539533,-0.013366
2026-06-18T10:27:01.779471,+0.15,-0.15,-1.08,51.539533,-0.013366
2026-06-18T10:27:01.836033,+0.14,+0.01,-1.07,51.5394964,-0.0133381
2026-06-18T10:27:01.899946,+0.20,-0.24,-0.92,51.5394964,-0.0133381
2026-06-18T10:27:01.960870,+0.11,-0.27,-0.98,51.5394964,-0.0133381
2026-06-18T10:27:02.048657,+0.14,-0.10,-0.82,51.5394964,-0.0133381
2026-06-18T10:27:02.110433,+0.22,-0.36,-0.81,51.5394964,-0.0133381
2026-06-18T10:27:02.169650,-0.03,-0.04,-1.08,51.5394964,-0.0133381
2026-06-18T10:27:02.227527,-0.01,-0.14,-1.04,51.5394964,-0.0133381
2026-06-18T10:27:02.320372,+0.06,-0.24,-1.02,51.5394964,-0.0133381
2026-06-18T10:27:02.379345,+0.11,-0.34,-0.87,51.5394964,-0.0133381
2026-06-18T10:27:02.439747,+0.14,-0.28,-0.94,51.5394964,-0.0133381
2026-06-18T10:27:02.499272,+0.00,-0.10,-1.15,51.5394964,-0.0133381
2026-06-18T10:27:02.560218,-0.02,-0.17,-1.52,51.5394964,-0.0133381
2026-06-18T10:27:02.649033,+0.06,-0.25,-0.94,51.5394964,-0.0133381
2026-06-18T10:27:02.707100,+0.14,-0.28,-0.80,51.5394964,-0.0133381
2026-06-18T10:27:02.768329,+0.06,-0.05,-0.83,51.5394964,-0.0133381
2026-06-18T10:27:02.826526,-0.15,-0.01,-1.14,51.5394612,-0.0133136
2026-06-18T10:27:02.890934,-0.04,-0.03,-1.10,51.5394612,-0.0133136
2026-06-18T10:27:02.980530,+0.14,-0.36,-0.84,51.5394612,-0.0133136
2026-06-18T10:27:03.044,+0.02,+0.02,-0.89,51.5394612,-0.0133136
2026-06-18T10:27:03.100002,-0.12,+0.06,-1.37,51.5394612,-0.0133136
2026-06-18T10:27:03.157244,+0.02,-0.20,-1.30,51.5394612,-0.0133136
2026-06-18T10:27:03.220115,+0.13,-0.22,-0.53,51.5394612,-0.0133136
2026-06-18T10:27:03.307387,+0.15,-0.31,-1.01,51.5394612,-0.0133136
2026-06-18T10:27:03.371580,+0.02,-0.13,-1.16,51.5394612,-0.0133136
2026-06-18T10:27:03.430499,+0.01,-0.11,-0.92,51.5394612,-0.0133136
2026-06-18T10:27:03.492326,+0.19,-0.31,-1.04,51.5394612,-0.0133136
2026-06-18T10:27:03.545849,+0.02,-0.13,-0.95,51.5394612,-0.0133136
2026-06-18T10:27:03.637936,+0.03,-0.11,-0.92,51.5394612,-0.0133136
2026-06-18T10:27:03.697279,+0.12,-0.19,-0.69,51.5394612,-0.0133136
2026-06-18T10:27:03.759418,+0.22,-0.33,-0.86,51.5394612,-0.0133136
2026-06-18T10:27:03.815541,+0.28,-0.22,-0.60,51.5394231,-0.013298
2026-06-18T10:27:03.880615,+0.15,-0.15,-0.93,51.5394231,-0.013298
2026-06-18T10:27:03.968737,+0.20,-0.28,-0.82,51.5394231,-0.013298
2026-06-18T10:27:04.027003,+0.07,-0.14,-1.08,51.5394231,-0.013298
2026-06-18T10:27:04.091481,+0.11,-0.31,-1.00,51.5394231,-0.013298
2026-06-18T10:27:04.147530,+0.04,-0.17,-0.93,51.5394231,-0.013298
2026-06-18T10:27:04.242486,+0.06,-0.03,-0.39,51.5394231,-0.013298
2026-06-18T10:27:04.298330,+0.04,-0.09,-1.05,51.5394231,-0.013298
2026-06-18T10:27:04.359138,+0.02,-0.24,-1.33,51.5394231,-0.013298
2026-06-18T10:27:04.419631,-0.06,-0.10,-1.01,51.5394231,-0.013298
2026-06-18T10:27:04.477632,+0.05,-0.12,-0.69,51.5394231,-0.013298
2026-06-18T10:27:04.570222,-0.05,+0.01,-1.15,51.5394231,-0.013298
2026-06-18T10:27:04.629924,+0.06,-0.07,-0.84,51.5394231,-0.013298
2026-06-18T10:27:04.689590,+0.02,-0.22,-1.29,51.5394231,-0.013298
2026-06-18T10:27:04.747589,+0.01,-0.07,-1.07,51.5394231,-0.013298
2026-06-18T10:27:04.806917,+0.10,-0.19,-0.87,51.5393856,-0.0132863
2026-06-18T10:27:04.900708,-0.04,+0.01,-0.83,51.5393856,-0.0132863
2026-06-18T10:27:04.957697,+0.03,-0.20,-1.03,51.5393856,-0.0132863
2026-06-18T10:27:05.020418,+0.01,-0.09,-1.09,51.5393856,-0.0132863
2026-06-18T10:27:05.080013,-0.04,-0.11,-1.10,51.5393856,-0.0132863
2026-06-18T10:27:05.140465,-0.08,-0.11,-1.19,51.5393856,-0.0132863
2026-06-18T10:27:05.232128,+0.08,-0.15,-0.90,51.5393856,-0.0132863
2026-06-18T10:27:05.289638,-0.12,+0.12,-1.01,51.5393856,-0.0132863
2026-06-18T10:27:05.350451,-0.01,-0.04,-0.94,51.5393856,-0.0132863
2026-06-18T10:27:05.410357,+0.04,-0.09,-0.92,51.5393856,-0.0132863
2026-06-18T10:27:05.469695,-0.00,-0.08,-0.98,51.5393856,-0.0132863
2026-06-18T10:27:05.559403,+0.08,-0.14,-1.18,51.5393856,-0.0132863
2026-06-18T10:27:05.620348,+0.00,-0.13,-0.79,51.5393856,-0.0132863
2026-06-18T10:27:05.680022,+0.16,-0.24,-0.85,51.5393856,-0.0132863
2026-06-18T10:27:05.738617,+0.05,-0.11,-0.86,51.5393856,-0.0132863
2026-06-18T10:27:05.799176,+0.07,-0.15,-0.87,51.5393856,-0.0132863
2026-06-18T10:27:05.888474,+0.02,-0.22,-1.08,51.5393555,-0.0132785
2026-06-18T10:27:05.947392,-0.08,+0.13,-0.93,51.5393555,-0.0132785
2026-06-18T10:27:06.009034,+0.12,-0.17,-1.11,51.5393555,-0.0132785
2026-06-18T10:27:06.067716,+0.04,-0.19,-0.93,51.5393555,-0.0132785
2026-06-18T10:27:06.160721,-0.01,-0.04,-0.97,51.5393555,-0.0132785
2026-06-18T10:27:06.219595,+0.07,-0.04,-1.04,51.5393555,-0.0132785
2026-06-18T10:27:06.279917,+0.00,-0.18,-1.08,51.5393555,-0.0132785
2026-06-18T10:27:06.340569,+0.06,-0.20,-0.81,51.5393555,-0.0132785
2026-06-18T10:27:06.431440,+0.01,-0.06,-0.95,51.5393555,-0.0132785
2026-06-18T10:27:06.486539,+0.02,-0.13,-1.03,51.5393555,-0.0132785
2026-06-18T10:27:06.550324,+0.03,-0.11,-1.04,51.5393555,-0.0132785
2026-06-18T10:27:06.609769,-0.04,-0.12,-0.90,51.5393555,-0.0132785
2026-06-18T10:27:06.670608,+0.04,-0.20,-0.95,51.5393555,-0.0132785
2026-06-18T10:27:06.758048,+0.06,-0.17,-1.07,51.5393555,-0.0132785
2026-06-18T10:27:06.816134,-0.03,-0.10,-1.04,51.5393375,-0.0132737
2026-06-18T10:27:06.879679,+0.09,-0.03,-0.87,51.5393375,-0.0132737
2026-06-18T10:27:06.940590,+0.08,-0.01,-0.96,51.5393375,-0.0132737
2026-06-18T10:27:06.999777,+0.07,-0.04,-0.82,51.5393375,-0.0132737
2026-06-18T10:27:07.092393,-0.03,-0.06,-1.00,51.5393375,-0.0132737
2026-06-18T10:27:07.146619,+0.00,-0.18,-0.88,51.5393375,-0.0132737
2026-06-18T10:27:07.208796,+0.07,-0.15,-0.93,51.5393375,-0.0132737
2026-06-18T10:27:07.269767,-0.01,-0.12,-1.04,51.5393375,-0.0132737
2026-06-18T10:27:07.328476,+0.02,-0.09,-1.11,51.5393375,-0.0132737
2026-06-18T10:27:07.418283,+0.03,+0.06,-1.01,51.5393375,-0.0132737
2026-06-18T10:27:07.479497,+0.02,+0.11,-1.08,51.5393375,-0.0132737
2026-06-18T10:27:07.540395,+0.11,+0.04,-1.01,51.5393375,-0.0132737
2026-06-18T10:27:07.599686,+0.12,+0.09,-1.00,51.5393375,-0.0132737
2026-06-18T10:27:07.660702,+0.05,+0.09,-1.04,51.5393375,-0.0132737
2026-06-18T10:27:07.750358,+0.13,+0.05,-1.02,51.5393375,-0.0132737
2026-06-18T10:27:07.808612,+0.13,-0.06,-1.01,51.5393293,-0.013271
2026-06-18T10:27:07.868801,+0.14,-0.04,-0.99,51.5393293,-0.013271
2026-06-18T10:27:07.928872,+0.28,-0.16,-1.23,51.5393293,-0.013271
2026-06-18T10:27:07.990888,+0.17,-0.08,-1.12,51.5393293,-0.013271
2026-06-18T10:27:08.079230,+0.15,-0.07,-0.90,51.5393293,-0.013271
2026-06-18T10:27:08.141744,+0.16,-0.13,-0.98,51.5393293,-0.013271
2026-06-18T10:27:08.197656,+0.18,-0.13,-0.99,51.5393293,-0.013271
2026-06-18T10:27:08.260076,+0.14,-0.15,-0.98,51.5393293,-0.013271
2026-06-18T10:27:08.350589,+0.15,-0.15,-0.99,51.5393293,-0.013271
2026-06-18T10:27:08.411689,+0.19,-0.18,-0.96,51.5393293,-0.013271
2026-06-18T10:27:08.470509,+0.21,-0.17,-0.96,51.5393293,-0.013271
2026-06-18T10:27:08.530776,+0.25,-0.19,-0.95,51.5393293,-0.013271
2026-06-18T10:27:08.586450,+0.31,-0.25,-0.92,51.5393293,-0.013271
2026-06-18T10:27:08.676554,+0.38,-0.28,-0.92,51.5393293,-0.013271
2026-06-18T10:27:08.739932,+0.37,-0.29,-0.92,51.5393293,-0.013271
2026-06-18T10:27:08.801261,+0.37,-0.34,-0.89,51.5393312,-0.0132706
2026-06-18T10:27:08.859450,+0.31,-0.29,-0.89,51.5393312,-0.0132706
2026-06-18T10:27:08.919100,+0.30,-0.32,-0.90,51.5393312,-0.0132706
2026-06-18T10:27:09.009601,+0.30,-0.41,-1.02,51.5393312,-0.0132706
2026-06-18T10:27:09.069475,+0.16,-0.25,-0.83,51.5393312,-0.0132706
2026-06-18T10:27:09.130466,+0.18,-0.15,-1.01,51.5393312,-0.0132706
2026-06-18T10:27:09.190210,+0.20,-0.16,-1.05,51.5393312,-0.0132706
2026-06-18T10:27:09.249164,+0.24,-0.35,-0.95,51.5393312,-0.0132706
2026-06-18T10:27:09.341536,+0.19,-0.20,-0.93,51.5393312,-0.0132706
2026-06-18T10:27:09.397281,-0.04,-0.21,-0.98,51.5393312,-0.0132706
2026-06-18T10:27:09.457975,+0.21,-0.17,-0.91,51.5393312,-0.0132706
2026-06-18T10:27:09.520132,+0.23,-0.14,-0.92,51.5393312,-0.0132706
2026-06-18T10:27:09.581278,-0.09,-0.25,-1.02,51.5393312,-0.0132706
2026-06-18T10:27:09.669304,+0.16,-0.26,-1.04,51.5393312,-0.0132706
2026-06-18T10:27:09.730168,-0.01,-0.09,-1.06,51.5393312,-0.0132706
2026-06-18T10:27:09.786101,+0.01,-0.25,-0.95,51.5393312,-0.0132706
2026-06-18T10:27:09.846536,+0.31,-0.32,-0.79,51.5393206,-0.0132675
2026-06-18T10:27:09.911031,+0.09,-0.19,-1.04,51.5393206,-0.0132675
2026-06-18T10:27:10.000458,+0.14,-0.35,-0.90,51.5393206,-0.0132675
2026-06-18T10:27:10.056616,+0.13,-0.24,-0.94,51.5393206,-0.0132675
2026-06-18T10:27:10.121619,+0.05,-0.24,-0.85,51.5393206,-0.0132675
2026-06-18T10:27:10.180423,-0.00,-0.31,-1.01,51.5393206,-0.0132675
2026-06-18T10:27:10.269931,+0.11,-0.30,-0.99,51.5393206,-0.0132675
2026-06-18T10:27:10.387761,+0.14,-0.30,-0.96,51.5393206,-0.0132675
2026-06-18T10:27:10.388639,+0.10,-0.31,-1.02,51.5393206,-0.0132675
2026-06-18T10:27:10.447457,+0.02,-0.23,-0.95,51.5393206,-0.0132675
2026-06-18T10:27:10.505927,+0.11,-0.31,-0.98,51.5393206,-0.0132675
2026-06-18T10:27:10.599800,+0.10,-0.21,-1.05,51.5393206,-0.0132675
2026-06-18T10:27:10.656973,+0.12,-0.26,-1.00,51.5393206,-0.0132675
2026-06-18T10:27:10.722568,+0.19,-0.19,-0.87,51.5393206,-0.0132675
2026-06-18T10:27:10.776404,+0.18,-0.12,-0.88,51.5393206,-0.0132675
2026-06-18T10:27:10.836794,+0.17,-0.16,-0.94,51.539304,-0.0132678
2026-06-18T10:27:10.930327,+0.12,-0.18,-0.97,51.539304,-0.0132678
2026-06-18T10:27:10.987198,+0.14,-0.20,-0.97,51.539304,-0.0132678
2026-06-18T10:27:11.046947,+0.07,-0.26,-1.05,51.539304,-0.0132678
2026-06-18T10:27:11.109671,+0.14,-0.15,-0.88,51.539304,-0.0132678
2026-06-18T10:27:11.171322,+0.15,-0.25,-1.04,51.539304,-0.0132678
2026-06-18T10:27:11.259393,+0.16,-0.16,-1.01,51.539304,-0.0132678
2026-06-18T10:27:11.320273,+0.12,-0.17,-0.90,51.539304,-0.0132678
2026-06-18T10:27:11.380520,+0.17,-0.17,-0.90,51.539304,-0.0132678
2026-06-18T10:27:11.442396,+0.11,-0.11,-1.01,51.539304,-0.0132678
2026-06-18T10:27:11.500171,+0.09,-0.18,-0.93,51.539304,-0.0132678
2026-06-18T10:27:11.592350,+0.05,-0.19,-0.92,51.539304,-0.0132678
2026-06-18T10:27:11.646962,+0.10,-0.21,-0.96,51.539304,-0.0132678
2026-06-18T10:27:11.710551,+0.03,-0.20,-1.01,51.539304,-0.0132678
2026-06-18T10:27:11.769968,+0.11,-0.23,-0.83,51.539304,-0.0132678
2026-06-18T10:27:11.827982,+0.13,-0.28,-1.04,51.539283,-0.0132632
2026-06-18T10:27:11.919567,+0.15,-0.29,-0.88,51.539283,-0.0132632
2026-06-18T10:27:11.980928,+0.12,-0.30,-0.95,51.539283,-0.0132632
2026-06-18T10:27:12.037511,+0.04,-0.24,-1.02,51.539283,-0.0132632
2026-06-18T10:27:12.100530,+0.10,-0.28,-0.90,51.539283,-0.0132632
2026-06-18T10:27:12.160974,+0.10,-0.29,-1.03,51.539283,-0.0132632
2026-06-18T10:27:12.249100,+0.21,-0.24,-0.74,51.539283,-0.0132632
2026-06-18T10:27:12.308124,+0.15,-0.23,-0.89,51.539283,-0.0132632
2026-06-18T10:27:12.371308,+0.11,-0.13,-1.06,51.539283,-0.0132632
2026-06-18T10:27:12.455983,+0.10,-0.20,-0.87,51.539283,-0.0132632
2026-06-18T10:27:12.518347,+0.04,-0.24,-0.99,51.539283,-0.0132632
2026-06-18T10:27:12.576434,+0.12,-0.19,-0.91,51.539283,-0.0132632
2026-06-18T10:27:12.638040,+0.06,-0.14,-1.07,51.539283,-0.0132632
2026-06-18T10:27:12.700314,+0.21,-0.17,-0.89,51.539283,-0.0132632
2026-06-18T10:27:12.786317,+0.14,-0.23,-1.09,51.539283,-0.0132632
2026-06-18T10:27:12.846900,+0.08,-0.24,-0.94,51.5392561,-0.013258
2026-06-18T10:27:12.912495,+0.07,-0.16,-0.94,51.5392561,-0.013258
2026-06-18T10:27:12.970947,+0.10,-0.19,-0.87,51.5392561,-0.013258
2026-06-18T10:27:13.030105,+0.13,-0.29,-0.83,51.5392561,-0.013258
2026-06-18T10:27:13.121585,-0.02,-0.17,-0.97,51.5392561,-0.013258
2026-06-18T10:27:13.179861,+0.08,-0.26,-0.98,51.5392561,-0.013258
2026-06-18T10:27:13.239246,+0.09,-0.25,-1.05,51.5392561,-0.013258
2026-06-18T10:27:13.300103,+0.09,-0.25,-1.02,51.5392561,-0.013258
2026-06-18T10:27:13.356911,+0.18,-0.33,-0.82,51.5392561,-0.013258
2026-06-18T10:27:13.451172,+0.02,-0.11,-0.80,51.5392561,-0.013258
2026-06-18T10:27:13.506475,+0.02,-0.14,-1.02,51.5392561,-0.013258
2026-06-18T10:27:13.568360,+0.15,-0.28,-0.79,51.5392561,-0.013258
2026-06-18T10:27:13.630639,+0.08,-0.18,-1.09,51.5392561,-0.013258
2026-06-18T10:27:13.691008,+0.10,-0.19,-0.93,51.5392561,-0.013258
2026-06-18T10:27:13.778647,+0.13,-0.27,-0.98,51.5392561,-0.013258
2026-06-18T10:27:13.836594,+0.14,-0.30,-0.93,51.5392273,-0.0132615
2026-06-18T10:27:13.900628,+0.14,-0.21,-0.76,51.5392273,-0.0132615
2026-06-18T10:27:13.960672,+0.13,-0.24,-0.99,51.5392273,-0.0132615
2026-06-18T10:27:14.019645,+0.16,-0.25,-0.97,51.5392273,-0.0132615
2026-06-18T10:27:14.109381,+0.11,-0.21,-1.01,51.5392273,-0.0132615
2026-06-18T10:27:14.169952,+0.24,-0.32,-0.99,51.5392273,-0.0132615
2026-06-18T10:27:14.229141,+0.12,-0.27,-0.76,51.5392273,-0.0132615
2026-06-18T10:27:14.290206,+0.06,-0.17,-0.94,51.5392273,-0.0132615
2026-06-18T10:27:14.349229,-0.01,-0.07,-1.42,51.5392273,-0.0132615
2026-06-18T10:27:14.443096,-0.02,-0.24,-1.08,51.5392273,-0.0132615
2026-06-18T10:27:14.499301,+0.19,-0.22,-0.78,51.5392273,-0.0132615
2026-06-18T10:27:14.561868,-0.01,-0.07,-1.01,51.5392273,-0.0132615
2026-06-18T10:27:14.621235,+0.22,-0.49,-0.76,51.5392273,-0.0132615
2026-06-18T10:27:14.710669,+0.13,-0.19,-0.99,51.5392273,-0.0132615
2026-06-18T10:27:14.771424,-0.05,-0.22,-1.38,51.5392273,-0.0132615
2026-06-18T10:27:14.826178,+0.09,-0.16,-0.84,51.5391972,-0.0132699
2026-06-18T10:27:14.890138,+0.30,-0.43,-0.80,51.5391972,-0.0132699
2026-06-18T10:27:14.948651,+0.07,-0.13,-1.10,51.5391972,-0.0132699
2026-06-18T10:27:15.038355,+0.25,-0.41,-0.77,51.5391972,-0.0132699
2026-06-18T10:27:15.102064,+0.08,-0.16,-0.96,51.5391972,-0.0132699
2026-06-18T10:27:15.159495,+0.10,-0.17,-0.97,51.5391972,-0.0132699
2026-06-18T10:27:15.221069,+0.17,-0.19,-1.06,51.5391972,-0.0132699
2026-06-18T10:27:15.277173,+0.09,-0.26,-0.91,51.5391972,-0.0132699
2026-06-18T10:27:15.370411,+0.20,-0.31,-0.87,51.5391972,-0.0132699
2026-06-18T10:27:15.429483,+0.02,-0.21,-0.95,51.5391972,-0.0132699
2026-06-18T10:27:15.488527,+0.00,-0.20,-1.09,51.5391972,-0.0132699
2026-06-18T10:27:15.549201,+0.08,-0.22,-0.84,51.5391972,-0.0132699
2026-06-18T10:27:15.609956,+0.04,-0.07,-1.07,51.5391972,-0.0132699
2026-06-18T10:27:15.698969,+0.01,-0.17,-0.99,51.5391972,-0.0132699
2026-06-18T10:27:15.759051,+0.08,-0.27,-1.02,51.5391972,-0.0132699
2026-06-18T10:27:15.816998,+0.07,-0.22,-1.00,51.539176,-0.0132813
2026-06-18T10:27:15.880543,+0.04,-0.20,-1.10,51.539176,-0.0132813
2026-06-18T10:27:15.939463,+0.09,-0.20,-0.93,51.539176,-0.0132813
2026-06-18T10:27:16.030344,+0.04,-0.25,-1.15,51.539176,-0.0132813
2026-06-18T10:27:16.089857,+0.08,-0.20,-0.97,51.539176,-0.0132813
2026-06-18T10:27:16.148,+0.08,-0.22,-0.81,51.539176,-0.0132813
2026-06-18T10:27:16.209104,+0.09,-0.06,-0.75,51.539176,-0.0132813
2026-06-18T10:27:16.268607,+0.03,-0.06,-0.98,51.539176,-0.0132813
2026-06-18T10:27:16.360738,+0.12,-0.27,-0.95,51.539176,-0.0132813
2026-06-18T10:27:16.415600,+0.11,-0.23,-1.10,51.539176,-0.0132813
2026-06-18T10:27:16.477897,+0.13,-0.25,-0.88,51.539176,-0.0132813
2026-06-18T10:27:16.538203,+0.09,-0.29,-1.12,51.539176,-0.0132813
2026-06-18T10:27:16.625467,-0.02,-0.17,-1.34,51.539176,-0.0132813
2026-06-18T10:27:16.688632,-0.03,-0.17,-0.83,51.539176,-0.0132813
2026-06-18T10:27:16.750485,+0.21,-0.35,-0.83,51.539176,-0.0132813
2026-06-18T10:27:16.806354,+0.10,-0.09,-1.04,51.5391371,-0.0132911
2026-06-18T10:27:16.869760,+0.10,-0.27,-1.02,51.5391371,-0.0132911
2026-06-18T10:27:16.959550,+0.08,-0.25,-0.97,51.5391371,-0.0132911
2026-06-18T10:27:17.019276,+0.13,-0.10,-0.81,51.5391371,-0.0132911
2026-06-18T10:27:17.078781,+0.01,-0.14,-1.14,51.5391371,-0.0132911
2026-06-18T10:27:17.140333,+0.01,-0.17,-1.09,51.5391371,-0.0132911
2026-06-18T10:27:17.200292,+0.05,-0.08,-0.86,51.5391371,-0.0132911
2026-06-18T10:27:17.290660,-0.03,-0.02,-1.17,51.5391371,-0.0132911
2026-06-18T10:27:17.347019,-0.01,-0.14,-1.22,51.5391371,-0.0132911
2026-06-18T10:27:17.408014,+0.01,-0.19,-1.54,51.5391371,-0.0132911
2026-06-18T10:27:17.468572,+0.07,-0.18,-0.94,51.5391371,-0.0132911
2026-06-18T10:27:17.529885,+0.17,-0.27,-0.88,51.5391371,-0.0132911
2026-06-18T10:27:17.620468,+0.04,-0.20,-1.23,51.5391371,-0.0132911
2026-06-18T10:27:17.677756,-0.12,+0.13,-0.97,51.5391371,-0.0132911
2026-06-18T10:27:17.740189,+0.10,-0.26,-0.74,51.5391371,-0.0132911
2026-06-18T10:27:17.795518,+0.18,-0.32,-0.99,51.5391048,-0.0132988
2026-06-18T10:27:17.857754,+0.06,-0.10,-1.05,51.5391048,-0.0132988
2026-06-18T10:27:17.950841,+0.15,-0.31,-0.90,51.5391048,-0.0132988
2026-06-18T10:27:18.009466,+0.17,-0.22,-0.90,51.5391048,-0.0132988
2026-06-18T10:27:18.069553,+0.08,-0.16,-0.76,51.5391048,-0.0132988
2026-06-18T10:27:18.162258,+0.18,-0.35,-0.99,51.5391048,-0.0132988
2026-06-18T10:27:18.185476,-0.04,-0.08,-1.64,51.5391048,-0.0132988
2026-06-18T10:27:18.280183,+0.12,-0.21,-0.84,51.5391048,-0.0132988
2026-06-18T10:27:18.339841,+0.18,-0.35,-0.71,51.5391048,-0.0132988
2026-06-18T10:27:18.399968,-0.03,-0.04,-0.97,51.5391048,-0.0132988
2026-06-18T10:27:18.458350,-0.02,-0.05,-1.14,51.5391048,-0.0132988
2026-06-18T10:27:18.548859,+0.10,-0.24,-0.93,51.5391048,-0.0132988
2026-06-18T10:27:18.609954,+0.08,-0.18,-1.06,51.5391048,-0.0132988
2026-06-18T10:27:18.668176,+0.03,-0.15,-0.96,51.5391048,-0.0132988
2026-06-18T10:27:18.728022,+0.07,-0.21,-0.87,51.5391048,-0.0132988
2026-06-18T10:27:18.785411,+0.19,-0.25,-0.85,51.5391048,-0.0132988
2026-06-18T10:27:18.878080,+0.09,-0.16,-1.01,51.5390641,-0.013309
2026-06-18T10:27:18.940244,+0.20,-0.27,-0.95,51.5390641,-0.013309
2026-06-18T10:27:18.998519,+0.07,-0.31,-1.04,51.5390641,-0.013309
2026-06-18T10:27:19.055408,-0.06,-0.06,-1.17,51.5390641,-0.013309
2026-06-18T10:27:19.118788,+0.09,-0.23,-1.19,51.5390641,-0.013309
2026-06-18T10:27:19.208222,+0.04,-0.12,-0.96,51.5390641,-0.013309
2026-06-18T10:27:19.268581,+0.01,-0.23,-0.90,51.5390641,-0.013309
2026-06-18T10:27:19.331192,+0.15,-0.26,-1.05,51.5390641,-0.013309
2026-06-18T10:27:19.389284,+0.01,-0.29,-1.12,51.5390641,-0.013309
2026-06-18T10:27:19.448342,-0.01,-0.25,-1.17,51.5390641,-0.013309
2026-06-18T10:27:19.542071,+0.10,-0.20,-0.46,51.5390641,-0.013309
2026-06-18T10:27:19.598156,-0.24,+0.13,-1.83,51.5390641,-0.013309
2026-06-18T10:27:19.657144,-0.03,-0.20,-0.90,51.5390641,-0.013309
2026-06-18T10:27:19.719157,+0.28,-0.43,-1.03,51.5390641,-0.013309
2026-06-18T10:27:19.776618,+0.28,-0.31,-0.66,51.5390641,-0.013309
2026-06-18T10:27:19.866675,-0.10,+0.19,-1.27,51.5390245,-0.0133179
2026-06-18T10:27:19.930801,+0.24,-0.36,-0.77,51.5390245,-0.0133179
2026-06-18T10:27:19.991370,+0.00,-0.24,-1.04,51.5390245,-0.0133179
2026-06-18T10:27:20.048893,+0.31,-0.34,-0.89,51.5390245,-0.0133179
2026-06-18T10:27:20.107262,+0.03,-0.04,-1.03,51.5390245,-0.0133179
2026-06-18T10:27:20.203678,+0.14,-0.20,-0.85,51.5390245,-0.0133179
2026-06-18T10:27:20.256527,+0.04,-0.19,-1.03,51.5390245,-0.0133179
2026-06-18T10:27:20.318902,+0.07,-0.27,-1.03,51.5390245,-0.0133179
2026-06-18T10:27:20.377159,+0.01,-0.15,-0.95,51.5390245,-0.0133179
2026-06-18T10:27:20.435608,+0.05,-0.25,-1.06,51.5390245,-0.0133179
2026-06-18T10:27:20.530102,+0.07,-0.16,-0.92,51.5390245,-0.0133179
2026-06-18T10:27:20.587531,+0.02,-0.19,-0.95,51.5390245,-0.0133179
2026-06-18T10:27:20.649,+0.02,-0.33,-0.93,51.5390245,-0.0133179
2026-06-18T10:27:20.740087,+0.14,-0.19,-0.92,51.5390245,-0.0133179
2026-06-18T10:27:20.797929,+0.11,-0.21,-0.78,51.5390245,-0.0133179
2026-06-18T10:27:20.859164,+0.20,-0.24,-0.87,51.5389778,-0.0133375
2026-06-18T10:27:20.919708,+0.10,-0.21,-1.00,51.5389778,-0.0133375
2026-06-18T10:27:20.979729,+0.06,-0.12,-1.11,51.5389778,-0.0133375
2026-06-18T10:27:21.065176,+0.08,-0.16,-0.90,51.5389778,-0.0133375
2026-06-18T10:27:21.125168,+0.06,-0.06,-1.16,51.5389778,-0.0133375
2026-06-18T10:27:21.189961,+0.08,-0.15,-1.01,51.5389778,-0.0133375
2026-06-18T10:27:21.249119,+0.08,-0.26,-0.83,51.5389778,-0.0133375
2026-06-18T10:27:21.307603,+0.10,-0.29,-1.00,51.5389778,-0.0133375
2026-06-18T10:27:21.400548,+0.06,-0.17,-0.93,51.5389778,-0.0133375
2026-06-18T10:27:21.456575,+0.08,-0.14,-1.05,51.5389778,-0.0133375
2026-06-18T10:27:21.516057,+0.16,-0.16,-1.14,51.5389778,-0.0133375
2026-06-18T10:27:21.575965,+0.05,-0.11,-1.05,51.5389778,-0.0133375
2026-06-18T10:27:21.639476,+0.09,-0.21,-0.80,51.5389778,-0.0133375
2026-06-18T10:27:21.725832,-0.18,-0.06,-1.25,51.5389778,-0.0133375
2026-06-18T10:27:21.788632,-0.32,+0.23,-1.52,51.5389778,-0.0133375
2026-06-18T10:27:21.848976,+0.28,-0.44,-1.08,51.5389378,-0.0133436
2026-06-18T10:27:21.905814,+0.06,-0.02,-0.69,51.5389378,-0.0133436
2026-06-18T10:27:21.968512,-0.08,+0.02,-0.77,51.5389378,-0.0133436
2026-06-18T10:27:22.058086,+0.15,-0.41,-0.80,51.5389378,-0.0133436
2026-06-18T10:27:22.118160,+0.14,-0.11,-0.73,51.5389378,-0.0133436
2026-06-18T10:27:22.178919,+0.18,-0.23,-1.02,51.5389378,-0.0133436
2026-06-18T10:27:22.239750,+0.16,-0.24,-0.95,51.5389378,-0.0133436
2026-06-18T10:27:22.299442,+0.09,-0.28,-0.91,51.5389378,-0.0133436
2026-06-18T10:27:22.389519,+0.09,-0.17,-1.14,51.5389378,-0.0133436
2026-06-18T10:27:22.450627,+0.10,-0.31,-0.88,51.5389378,-0.0133436
2026-06-18T10:27:22.507356,+0.04,-0.28,-1.32,51.5389378,-0.0133436
2026-06-18T10:27:22.570067,+0.07,-0.10,-1.14,51.5389378,-0.0133436
2026-06-18T10:27:22.657474,+0.04,-0.10,-1.28,51.5389378,-0.0133436
2026-06-18T10:27:22.720949,+0.20,-0.20,-1.09,51.5389378,-0.0133436
2026-06-18T10:27:22.776389,+0.08,-0.30,-1.11,51.5389378,-0.0133436
2026-06-18T10:27:22.836768,+0.01,-0.22,-1.01,51.5388999,-0.0133488
2026-06-18T10:27:22.897277,+0.11,-0.16,-0.84,51.5388999,-0.0133488
2026-06-18T10:27:22.988117,+0.14,-0.21,-0.99,51.5388999,-0.0133488
2026-06-18T10:27:23.047375,-0.08,+0.01,-1.06,51.5388999,-0.0133488
2026-06-18T10:27:23.107646,+0.07,-0.31,-0.95,51.5388999,-0.0133488
2026-06-18T10:27:23.168169,-0.05,-0.11,-1.01,51.5388999,-0.0133488
2026-06-18T10:27:23.226731,-0.06,-0.16,-1.11,51.5388999,-0.0133488
2026-06-18T10:27:23.319148,+0.05,-0.20,-0.99,51.5388999,-0.0133488
2026-06-18T10:27:23.380337,+0.20,-0.26,-0.75,51.5388999,-0.0133488
2026-06-18T10:27:23.441703,+0.10,-0.18,-1.05,51.5388999,-0.0133488
2026-06-18T10:27:23.500074,+0.09,-0.15,-1.02,51.5388999,-0.0133488
2026-06-18T10:27:23.559663,+0.16,-0.32,-0.98,51.5388999,-0.0133488
2026-06-18T10:27:23.649061,+0.17,-0.09,-0.68,51.5388999,-0.0133488
2026-06-18T10:27:23.709896,+0.71,-1.44,+0.72,51.5388999,-0.0133488
2026-06-18T10:27:23.776301,+0.29,-0.52,-0.15,51.5388999,-0.0133488
2026-06-18T10:27:23.826156,+0.19,-0.25,-0.84,51.5388606,-0.0133577
2026-06-18T10:27:23.890814,-0.08,+0.04,-0.33,51.5388606,-0.0133577
2026-06-18T10:27:23.981021,+0.10,+0.00,-0.45,51.5388606,-0.0133577
2026-06-18T10:27:24.036532,-0.14,-0.05,-1.03,51.5388606,-0.0133577
2026-06-18T10:27:24.098900,+0.04,-0.25,-0.74,51.5388606,-0.0133577
2026-06-18T10:27:24.160480,+0.08,-0.21,-1.17,51.5388606,-0.0133577
2026-06-18T10:27:24.221513,+0.07,-0.18,-1.06,51.5388606,-0.0133577
2026-06-18T10:27:24.312313,+0.08,-0.22,-1.04,51.5388606,-0.0133577
2026-06-18T10:27:24.367135,+0.10,-0.24,-0.99,51.5388606,-0.0133577
2026-06-18T10:27:24.431376,+0.07,-0.10,-0.93,51.5388606,-0.0133577
2026-06-18T10:27:24.490731,+0.09,-0.24,-1.08,51.5388606,-0.0133577
2026-06-18T10:27:24.551032,+0.14,-0.06,-0.85,51.5388606,-0.0133577
2026-06-18T10:27:24.640087,+0.12,-0.16,-0.79,51.5388606,-0.0133577
2026-06-18T10:27:24.698611,+0.06,-0.23,-0.97,51.5388606,-0.0133577
2026-06-18T10:27:24.760183,+0.05,-0.19,-1.11,51.5388606,-0.0133577
2026-06-18T10:27:24.817229,+0.23,-0.43,-0.64,51.5388219,-0.0133734
2026-06-18T10:27:24.909646,+0.10,-0.14,-0.96,51.5388219,-0.0133734
2026-06-18T10:27:24.969232,+0.01,-0.19,-1.33,51.5388219,-0.0133734
2026-06-18T10:27:25.029093,-0.05,-0.15,-0.91,51.5388219,-0.0133734
2026-06-18T10:27:25.089917,+0.14,-0.25,-0.94,51.5388219,-0.0133734
2026-06-18T10:27:25.147145,+0.12,-0.23,-1.03,51.5388219,-0.0133734
2026-06-18T10:27:25.237344,+0.06,-0.06,-1.03,51.5388219,-0.0133734
2026-06-18T10:27:25.300275,+0.15,-0.24,-0.93,51.5388219,-0.0133734
2026-06-18T10:27:25.358658,+0.07,-0.31,-0.96,51.5388219,-0.0133734
2026-06-18T10:27:25.419976,+0.04,-0.17,-1.05,51.5388219,-0.0133734
2026-06-18T10:27:25.479278,+0.13,-0.19,-0.52,51.5388219,-0.0133734
2026-06-18T10:27:25.572309,+0.10,-0.13,-0.99,51.5388219,-0.0133734
2026-06-18T10:27:25.630367,+0.09,-0.21,-0.99,51.5388219,-0.0133734
2026-06-18T10:27:25.690184,-0.08,-0.06,-1.27,51.5388219,-0.0133734
2026-06-18T10:27:25.750147,+0.21,-0.40,-1.15,51.5388219,-0.0133734
2026-06-18T10:27:25.807179,-0.00,-0.16,-1.15,51.5387828,-0.0133881
2026-06-18T10:27:25.899183,+0.08,-0.23,-0.90,51.5387828,-0.0133881
2026-06-18T10:27:25.958921,+0.04,-0.15,-0.91,51.5387828,-0.0133881
2026-06-18T10:27:26.019754,+0.09,-0.19,-0.84,51.5387828,-0.0133881
2026-06-18T10:27:26.080253,+0.10,-0.18,-0.90,51.5387828,-0.0133881
2026-06-18T10:27:26.137372,+0.13,-0.21,-0.77,51.5387828,-0.0133881
2026-06-18T10:27:26.229775,+0.07,-0.10,-1.03,51.5387828,-0.0133881
2026-06-18T10:27:26.286849,+0.08,-0.18,-0.87,51.5387828,-0.0133881
2026-06-18T10:27:26.350212,+0.17,-0.32,-1.04,51.5387828,-0.0133881
2026-06-18T10:27:26.411069,+0.00,-0.03,-0.93,51.5387828,-0.0133881
2026-06-18T10:27:26.467379,+0.20,-0.23,-0.93,51.5387828,-0.0133881
2026-06-18T10:27:26.562798,+0.05,-0.11,-0.97,51.5387828,-0.0133881
2026-06-18T10:27:26.615105,-0.01,-0.22,-1.58,51.5387828,-0.0133881
2026-06-18T10:27:26.707830,+0.08,-0.31,-1.14,51.5387828,-0.0133881
2026-06-18T10:27:26.736291,+0.02,-0.14,-1.21,51.5387828,-0.0133881
2026-06-18T10:27:26.826399,+0.15,-0.13,-0.57,51.5387427,-0.0133965
2026-06-18T10:27:26.889852,-0.00,-0.01,-0.82,51.5387427,-0.0133965
2026-06-18T10:27:26.947666,-0.02,-0.12,-1.15,51.5387427,-0.0133965
2026-06-18T10:27:27.011247,+0.11,-0.18,-0.89,51.5387427,-0.0133965
2026-06-18T10:27:27.069919,+0.11,-0.26,-0.94,51.5387427,-0.0133965
2026-06-18T10:27:27.162168,+0.07,-0.18,-1.18,51.5387427,-0.0133965
2026-06-18T10:27:27.218265,+0.06,-0.23,-1.05,51.5387427,-0.0133965
2026-06-18T10:27:27.277388,+0.17,-0.29,-0.79,51.5387427,-0.0133965
2026-06-18T10:27:27.336472,+0.03,-0.11,-0.99,51.5387427,-0.0133965
2026-06-18T10:27:27.394790,-0.12,+0.12,-1.37,51.5387427,-0.0133965
2026-06-18T10:27:27.490019,+0.07,-0.19,-0.96,51.5387427,-0.0133965
2026-06-18T10:27:27.545374,+0.06,-0.21,-0.91,51.5387427,-0.0133965
2026-06-18T10:27:27.608763,+0.25,-0.47,-1.18,51.5387427,-0.0133965
2026-06-18T10:27:27.667385,-0.03,-0.17,-1.31,51.5387427,-0.0133965
2026-06-18T10:27:27.730137,+0.12,-0.29,-0.96,51.5387427,-0.0133965
2026-06-18T10:27:27.814910,+0.13,-0.10,-1.18,51.5387026,-0.0134085
2026-06-18T10:27:27.876781,+0.08,-0.15,-0.65,51.5387026,-0.0134085
2026-06-18T10:27:27.938647,+0.16,-0.25,-0.82,51.5387026,-0.0134085
2026-06-18T10:27:27.999738,+0.16,-0.22,-0.75,51.5387026,-0.0134085
2026-06-18T10:27:28.057398,+0.12,-0.16,-0.89,51.5387026,-0.0134085
2026-06-18T10:27:28.149522,+0.21,-0.34,-0.60,51.5387026,-0.0134085
2026-06-18T10:27:28.209025,+0.15,-0.20,-1.00,51.5387026,-0.0134085
2026-06-18T10:27:28.269892,+0.05,-0.20,-0.96,51.5387026,-0.0134085
2026-06-18T10:27:28.328814,+0.09,-0.30,-0.96,51.5387026,-0.0134085
2026-06-18T10:27:28.391583,+0.15,-0.13,-0.87,51.5387026,-0.0134085
2026-06-18T10:27:28.481001,-0.06,-0.08,-1.07,51.5387026,-0.0134085
2026-06-18T10:27:28.537260,+0.10,-0.25,-1.16,51.5387026,-0.0134085
2026-06-18T10:27:28.600334,+0.12,-0.21,-1.04,51.5387026,-0.0134085
2026-06-18T10:27:28.664909,+0.11,-0.24,-0.93,51.5387026,-0.0134085
2026-06-18T10:27:28.752135,+0.16,-0.23,-0.87,51.5387026,-0.0134085
2026-06-18T10:27:28.806823,+0.06,-0.18,-1.01,51.5386641,-0.0134143
2026-06-18T10:27:28.870372,+0.01,-0.19,-1.02,51.5386641,-0.0134143
2026-06-18T10:27:28.930641,+0.07,-0.20,-1.03,51.5386641,-0.0134143
2026-06-18T10:27:28.990848,+0.10,-0.17,-1.12,51.5386641,-0.0134143
2026-06-18T10:27:29.082052,+0.04,-0.29,-0.85,51.5386641,-0.0134143
2026-06-18T10:27:29.136964,+0.16,-0.23,-0.92,51.5386641,-0.0134143
2026-06-18T10:27:29.200922,-0.02,+0.03,-1.32,51.5386641,-0.0134143
2026-06-18T10:27:29.259618,+0.06,-0.23,-0.76,51.5386641,-0.0134143
2026-06-18T10:27:29.320733,+0.26,-0.34,-0.87,51.5386641,-0.0134143
2026-06-18T10:27:29.409473,-0.03,+0.07,-1.20,51.5386641,-0.0134143
2026-06-18T10:27:29.467608,-0.09,-0.20,-1.29,51.5386641,-0.0134143
2026-06-18T10:27:29.530681,+0.15,-0.33,-0.91,51.5386641,-0.0134143
2026-06-18T10:27:29.588967,+0.11,-0.30,-0.86,51.5386641,-0.0134143
2026-06-18T10:27:29.650671,-0.02,-0.10,-1.15,51.5386641,-0.0134143
2026-06-18T10:27:29.742216,+0.10,-0.22,-0.84,51.5386641,-0.0134143
2026-06-18T10:27:29.795712,-0.02,-0.08,-1.28,51.5386318,-0.0134254
2026-06-18T10:27:29.857629,+0.02,-0.14,-0.82,51.5386318,-0.0134254
2026-06-18T10:27:29.918322,+0.06,-0.19,-1.02,51.5386318,-0.0134254
2026-06-18T10:27:29.978463,+0.03,-0.24,-0.96,51.5386318,-0.0134254
2026-06-18T10:27:30.070663,+0.16,-0.31,-1.02,51.5386318,-0.0134254
2026-06-18T10:27:30.128359,+0.10,-0.17,-1.09,51.5386318,-0.0134254
2026-06-18T10:27:30.189603,+0.19,-0.18,-0.76,51.5386318,-0.0134254
2026-06-18T10:27:30.249583,+0.05,-0.24,-1.06,51.5386318,-0.0134254
2026-06-18T10:27:30.309861,+0.01,-0.03,-1.14,51.5386318,-0.0134254
2026-06-18T10:27:30.400740,+0.02,-0.18,-1.07,51.5386318,-0.0134254
2026-06-18T10:27:30.458796,+0.14,-0.34,-0.99,51.5386318,-0.0134254
2026-06-18T10:27:30.518909,-0.03,-0.13,-0.97,51.5386318,-0.0134254
2026-06-18T10:27:30.576331,+0.10,-0.22,-0.97,51.5386318,-0.0134254
2026-06-18T10:27:30.638026,+0.19,-0.32,-0.86,51.5386318,-0.0134254
2026-06-18T10:27:30.730717,+0.07,-0.10,-0.91,51.5386318,-0.0134254
2026-06-18T10:27:30.786816,+0.11,-0.34,-0.93,51.5386318,-0.0134254
2026-06-18T10:27:30.847322,+0.12,-0.17,-0.91,51.5386005,-0.0134399
2026-06-18T10:27:30.939499,+0.07,-0.21,-1.01,51.5386005,-0.0134399
2026-06-18T10:27:31.000787,+0.11,-0.24,-0.99,51.5386005,-0.0134399
2026-06-18T10:27:31.056962,+0.13,-0.17,-0.88,51.5386005,-0.0134399
2026-06-18T10:27:31.119547,+0.16,-0.33,-0.92,51.5386005,-0.0134399
2026-06-18T10:27:31.179653,+0.05,-0.16,-0.94,51.5386005,-0.0134399
2026-06-18T10:27:31.267645,+0.20,-0.21,-0.70,51.5386005,-0.0134399
2026-06-18T10:27:31.327364,+0.02,-0.13,-0.96,51.5386005,-0.0134399
2026-06-18T10:27:31.390222,+0.07,-0.22,-1.05,51.5386005,-0.0134399
2026-06-18T10:27:31.452413,+0.12,-0.25,-0.93,51.5386005,-0.0134399
2026-06-18T10:27:31.510917,+0.07,-0.19,-1.03,51.5386005,-0.0134399
2026-06-18T10:27:31.601319,+0.17,-0.26,-0.88,51.5386005,-0.0134399
2026-06-18T10:27:31.658988,+0.08,-0.14,-1.01,51.5386005,-0.0134399
2026-06-18T10:27:31.724787,+0.15,-0.27,-0.89,51.5386005,-0.0134399
2026-06-18T10:27:31.776216,+0.03,-0.14,-1.08,51.5386005,-0.0134399
2026-06-18T10:27:31.838835,+0.12,-0.15,-0.97,51.5385731,-0.0134495
2026-06-18T10:27:31.931721,+0.06,-0.17,-0.99,51.5385731,-0.0134495
2026-06-18T10:27:31.988638,+0.12,-0.25,-1.11,51.5385731,-0.0134495
2026-06-18T10:27:32.049156,+0.05,-0.24,-0.91,51.5385731,-0.0134495
2026-06-18T10:27:32.108505,+0.11,-0.30,-0.95,51.5385731,-0.0134495
2026-06-18T10:27:32.170101,+0.03,-0.15,-1.07,51.5385731,-0.0134495
2026-06-18T10:27:32.258839,+0.10,+0.09,-0.39,51.5385731,-0.0134495
2026-06-18T10:27:32.318819,-0.01,+0.00,-1.23,51.5385731,-0.0134495
2026-06-18T10:27:32.376449,+0.27,-0.38,-0.98,51.5385731,-0.0134495
2026-06-18T10:27:32.444671,+0.08,-0.26,-1.02,51.5385731,-0.0134495
2026-06-18T10:27:32.499787,+0.18,-0.32,-0.75,51.5385731,-0.0134495
2026-06-18T10:27:32.588410,+0.07,-0.27,-1.02,51.5385731,-0.0134495
2026-06-18T10:27:32.649102,+0.18,-0.31,-1.05,51.5385731,-0.0134495
2026-06-18T10:27:32.708097,+0.06,-0.17,-0.83,51.5385731,-0.0134495
2026-06-18T10:27:32.770383,+0.07,-0.25,-1.02,51.5385731,-0.0134495
2026-06-18T10:27:32.826769,+0.19,-0.32,-0.87,51.5385515,-0.0134507
2026-06-18T10:27:32.918884,+0.04,-0.01,-0.96,51.5385515,-0.0134507
2026-06-18T10:27:32.978187,+0.22,-0.49,-0.87,51.5385515,-0.0134507
2026-06-18T10:27:33.039783,+0.06,-0.20,-1.01,51.5385515,-0.0134507
2026-06-18T10:27:33.099579,+0.12,-0.23,-0.94,51.5385515,-0.0134507
2026-06-18T10:27:33.188052,+0.23,-0.33,-0.81,51.5385515,-0.0134507
2026-06-18T10:27:33.245548,-0.14,+0.20,-1.13,51.5385515,-0.0134507
2026-06-18T10:27:33.308072,+0.06,-0.27,-1.12,51.5385515,-0.0134507
2026-06-18T10:27:33.400842,+0.25,-0.33,-0.78,51.5385515,-0.0134507
2026-06-18T10:27:33.428763,+0.12,-0.29,-0.85,51.5385515,-0.0134507
2026-06-18T10:27:33.546288,+0.14,-0.33,-0.92,51.5385515,-0.0134507
2026-06-18T10:27:33.575542,+0.16,-0.25,-0.82,51.5385515,-0.0134507
2026-06-18T10:27:33.638385,+0.08,-0.10,-1.00,51.5385515,-0.0134507
2026-06-18T10:27:33.698788,+0.14,-0.23,-0.80,51.5385515,-0.0134507
2026-06-18T10:27:33.786949,+0.06,-0.14,-1.06,51.5385515,-0.0134507
2026-06-18T10:27:33.848716,+0.10,-0.23,-0.93,51.5385306,-0.0134473
2026-06-18T10:27:33.908653,+0.10,-0.16,-1.06,51.5385306,-0.0134473
2026-06-18T10:27:33.966236,+0.18,-0.23,-0.66,51.5385306,-0.0134473
2026-06-18T10:27:34.030228,+0.10,-0.24,-1.12,51.5385306,-0.0134473
2026-06-18T10:27:34.089547,+0.04,-0.21,-1.03,51.5385306,-0.0134473
2026-06-18T10:27:34.178842,+0.10,-0.18,-0.94,51.5385306,-0.0134473
2026-06-18T10:27:34.236047,+0.13,-0.16,-0.90,51.5385306,-0.0134473
2026-06-18T10:27:34.298125,-0.01,-0.12,-1.02,51.5385306,-0.0134473
2026-06-18T10:27:34.362457,+0.22,-0.29,-0.78,51.5385306,-0.0134473
2026-06-18T10:27:34.418668,+0.18,-0.37,-0.72,51.5385306,-0.0134473
2026-06-18T10:27:34.512237,+0.07,-0.28,-0.95,51.5385306,-0.0134473
2026-06-18T10:27:34.567258,+0.06,-0.17,-1.07,51.5385306,-0.0134473
2026-06-18T10:27:34.629590,-0.02,-0.10,-1.16,51.5385306,-0.0134473
2026-06-18T10:27:34.690813,+0.03,-0.19,-0.99,51.5385306,-0.0134473
2026-06-18T10:27:34.750747,-0.07,-0.23,-1.00,51.5385306,-0.0134473
2026-06-18T10:27:34.838920,+0.15,-0.13,-0.92,51.5385035,-0.0134469
2026-06-18T10:27:34.902545,+0.11,-0.28,-0.94,51.5385035,-0.0134469
2026-06-18T10:27:34.963102,+0.11,-0.24,-0.95,51.5385035,-0.0134469
2026-06-18T10:27:35.023245,+0.13,-0.25,-0.95,51.5385035,-0.0134469
2026-06-18T10:27:35.108941,+0.14,-0.27,-1.02,51.5385035,-0.0134469
2026-06-18T10:27:35.171837,+0.09,-0.21,-1.02,51.5385035,-0.0134469
2026-06-18T10:27:35.229257,+0.13,-0.15,-0.99,51.5385035,-0.0134469
2026-06-18T10:27:35.288774,+0.04,-0.27,-0.95,51.5385035,-0.0134469
2026-06-18T10:27:35.349372,+0.03,-0.12,-0.95,51.5385035,-0.0134469
2026-06-18T10:27:35.443277,+0.21,-0.34,-0.80,51.5385035,-0.0134469
2026-06-18T10:27:35.496379,+0.10,-0.28,-1.01,51.5385035,-0.0134469
2026-06-18T10:27:35.560362,+0.15,-0.17,-0.88,51.5385035,-0.0134469
2026-06-18T10:27:35.618214,+0.12,-0.18,-0.75,51.5385035,-0.0134469
2026-06-18T10:27:35.676350,-0.00,-0.02,-0.93,51.5385035,-0.0134469
2026-06-18T10:27:35.774107,+0.08,-0.16,-1.21,51.5385035,-0.0134469
2026-06-18T10:27:35.825704,+0.22,-0.35,-0.60,51.5384715,-0.0134507
2026-06-18T10:27:35.887669,-0.01,-0.03,-1.23,51.5384715,-0.0134507
2026-06-18T10:27:35.950336,+0.17,-0.28,-0.76,51.5384715,-0.0134507
2026-06-18T10:27:36.007434,+0.21,-0.21,-0.94,51.5384715,-0.0134507
2026-06-18T10:27:36.098964,+0.03,-0.12,-1.10,51.5384715,-0.0134507
2026-06-18T10:27:36.158818,+0.13,-0.24,-1.00,51.5384715,-0.0134507
2026-06-18T10:27:36.220599,+0.16,-0.14,-0.84,51.5384715,-0.0134507
2026-06-18T10:27:36.280649,-0.01,-0.17,-1.04,51.5384715,-0.0134507
