Timestamp,Acc_X,Acc_Y,Acc_Z,Latitude,Longitude
2026-06-18T10:36:52.615409,+0.18,-0.16,-0.98,51.540597,-0.0146477
2026-06-18T10:36:52.670576,+0.19,-0.15,-0.97,51.540597,-0.0146477
2026-06-18T10:36:52.727954,+0.18,-0.17,-0.97,51.540597,-0.0146477
2026-06-18T10:36:52.776977,+0.18,-0.15,-0.97,51.540597,-0.0146477
2026-06-18T10:36:52.845823,+0.17,-0.14,-0.97,51.540597,-0.0146477
2026-06-18T10:36:52.932329,+0.16,-0.17,-0.97,51.540597,-0.0146477
2026-06-18T10:36:52.996449,+0.18,-0.18,-0.96,51.540597,-0.0146477
2026-06-18T10:36:53.047695,+0.18,-0.16,-0.97,51.540597,-0.0146477
2026-06-18T10:36:53.107385,+0.17,-0.15,-0.97,51.540597,-0.0146477
2026-06-18T10:36:53.173064,+0.24,-0.13,-0.97,51.540597,-0.0146477
2026-06-18T10:36:53.258978,+0.20,-0.15,-0.98,51.540597,-0.0146477
2026-06-18T10:36:53.317910,+0.11,-0.08,-1.02,51.540597,-0.0146477
2026-06-18T10:36:53.377735,+0.21,-0.27,-0.97,51.540597,-0.0146477
2026-06-18T10:36:53.438131,+0.24,-0.05,-1.00,51.540597,-0.0146477
2026-06-18T10:36:53.498194,+0.09,-0.15,-0.99,51.540597,-0.0146477
2026-06-18T10:36:53.588317,+0.15,-0.17,-0.95,51.540597,-0.0146477
2026-06-18T10:36:53.648943,+0.21,-0.06,-1.02,51.540597,-0.0146477
2026-06-18T10:36:53.707012,+0.16,-0.08,-1.01,51.540597,-0.0146477
2026-06-18T10:36:53.773694,+0.17,-0.12,-0.97,51.5406172,-0.0147388
2026-06-18T10:36:53.860437,+0.22,-0.15,-0.99,51.5406172,-0.0147388
2026-06-18T10:36:53.919748,+0.09,-0.19,-0.98,51.5406172,-0.0147388
2026-06-18T10:36:53.979404,+0.05,-0.16,-0.99,51.5406172,-0.0147388
2026-06-18T10:36:54.038584,+0.19,-0.16,-0.97,51.5406172,-0.0147388
2026-06-18T10:36:54.097824,+0.16,-0.19,-0.96,51.5406172,-0.0147388
2026-06-18T10:36:54.189330,+0.16,-0.14,-0.98,51.5406172,-0.0147388
2026-06-18T10:36:54.246530,+0.12,-0.21,-0.96,51.5406172,-0.0147388
2026-06-18T10:36:54.306426,+0.22,-0.20,-0.98,51.5406172,-0.0147388
2026-06-18T10:36:54.374643,+0.07,-0.23,-0.98,51.5406172,-0.0147388
2026-06-18T10:36:54.430411,+0.12,-0.11,-0.98,51.5406172,-0.0147388
2026-06-18T10:36:54.516873,+0.13,-0.11,-0.99,51.5406172,-0.0147388
2026-06-18T10:36:54.578512,+0.08,-0.16,-0.99,51.5406172,-0.0147388
2026-06-18T10:36:54.640634,+0.09,-0.10,-1.01,51.5406172,-0.0147388
2026-06-18T10:36:54.697011,+0.17,-0.14,-0.98,51.5406172,-0.0147388
2026-06-18T10:36:54.762288,+0.18,-0.22,-0.93,51.5406172,-0.0147388
2026-06-18T10:36:54.846549,+0.22,-0.25,-0.96,51.5406172,-0.014739
2026-06-18T10:36:54.907593,+0.10,-0.29,-0.95,51.5406172,-0.014739
2026-06-18T10:36:54.968918,+0.14,-0.05,-1.08,51.5406172,-0.014739
2026-06-18T10:36:55.029454,+0.24,-0.19,-0.94,51.5406172,-0.014739
2026-06-18T10:36:55.088150,+0.22,-0.23,-0.93,51.5406172,-0.014739
2026-06-18T10:36:55.182867,+0.17,-0.14,-0.99,51.5406172,-0.014739
2026-06-18T10:36:55.238438,+0.18,-0.05,-0.98,51.5406172,-0.014739
2026-06-18T10:36:55.300204,+0.22,-0.12,-0.99,51.5406172,-0.014739
2026-06-18T10:36:55.359208,+0.27,-0.10,-0.98,51.5406172,-0.014739
2026-06-18T10:36:55.420328,+0.25,-0.09,-0.98,51.5406172,-0.014739
2026-06-18T10:36:55.514654,+0.21,-0.11,-0.98,51.5406172,-0.014739
2026-06-18T10:36:55.568746,+0.15,-0.08,-0.97,51.5406172,-0.014739
2026-06-18T10:36:55.627884,+0.19,-0.11,-0.97,51.5406172,-0.014739
2026-06-18T10:36:55.688657,+0.28,-0.17,-0.98,51.5406172,-0.014739
2026-06-18T10:36:55.777187,+0.29,-0.11,-0.98,51.5406172,-0.014739
2026-06-18T10:36:55.839652,+0.23,-0.07,-0.95,51.5406205,-0.014736
2026-06-18T10:36:55.899659,+0.24,-0.25,-0.94,51.5406205,-0.014736
2026-06-18T10:36:55.957473,+0.20,-0.14,-0.99,51.5406205,-0.014736
2026-06-18T10:36:56.018934,+0.25,-0.12,-0.96,51.5406205,-0.014736
2026-06-18T10:36:56.107838,+0.19,-0.11,-0.98,51.5406205,-0.014736
2026-06-18T10:36:56.168072,+0.24,-0.15,-0.98,51.5406205,-0.014736
2026-06-18T10:36:56.228381,+0.23,-0.12,-0.97,51.5406205,-0.014736
2026-06-18T10:36:56.288183,+0.25,-0.14,-0.97,51.5406205,-0.014736
2026-06-18T10:36:56.348061,+0.21,-0.22,-0.97,51.5406205,-0.014736
2026-06-18T10:36:56.438136,+0.31,-0.12,-0.96,51.5406205,-0.014736
2026-06-18T10:36:56.498020,+0.29,-0.23,-0.96,51.5406205,-0.014736
2026-06-18T10:36:56.559597,+0.38,-0.18,-0.95,51.5406205,-0.014736
2026-06-18T10:36:56.619764,+0.39,-0.10,-0.93,51.5406205,-0.014736
2026-06-18T10:36:56.678852,+0.32,-0.17,-0.97,51.5406205,-0.014736
2026-06-18T10:36:56.770810,+0.36,-0.17,-0.99,51.5406205,-0.014736
2026-06-18T10:36:56.829329,+0.32,-0.17,-0.97,51.5406216,-0.0147361
2026-06-18T10:36:56.888953,+0.30,-0.31,-0.95,51.5406216,-0.0147361
2026-06-18T10:36:56.947572,+0.32,-0.27,-1.02,51.5406216,-0.0147361
2026-06-18T10:36:57.007995,+0.23,-0.24,-0.97,51.5406216,-0.0147361
2026-06-18T10:36:57.100534,+0.05,-0.11,-0.87,51.5406216,-0.0147361
2026-06-18T10:36:57.159372,+0.15,-0.21,-0.93,51.5406216,-0.0147361
2026-06-18T10:36:57.217635,+0.25,-0.29,-0.80,51.5406216,-0.0147361
2026-06-18T10:36:57.279291,+0.16,-0.29,-0.93,51.5406216,-0.0147361
2026-06-18T10:36:57.339242,+0.12,-0.21,-0.99,51.5406216,-0.0147361
2026-06-18T10:36:57.428615,+0.13,-0.19,-0.98,51.5406216,-0.0147361
2026-06-18T10:36:57.488897,+0.23,-0.29,-0.88,51.5406216,-0.0147361
2026-06-18T10:36:57.548644,+0.28,-0.27,-0.79,51.5406216,-0.0147361
2026-06-18T10:36:57.608419,+0.15,-0.12,-1.01,51.5406216,-0.0147361
2026-06-18T10:36:57.697066,+0.20,-0.17,-0.97,51.5406216,-0.0147361
2026-06-18T10:36:57.758870,+0.06,-0.24,-0.99,51.5406216,-0.0147361
2026-06-18T10:36:57.817536,+0.13,-0.24,-0.97,51.5406313,-0.0147373
2026-06-18T10:36:57.878373,+0.03,-0.08,-1.06,51.5406313,-0.0147373
2026-06-18T10:36:57.937762,+0.13,-0.16,-1.04,51.5406313,-0.0147373
2026-06-18T10:36:58.027379,+0.19,-0.21,-0.93,51.5406313,-0.0147373
2026-06-18T10:36:58.088393,+0.00,-0.24,-0.97,51.5406313,-0.0147373
2026-06-18T10:36:58.148315,+0.06,-0.13,-1.03,51.5406313,-0.0147373
2026-06-18T10:36:58.207627,+0.29,-0.26,-1.03,51.5406313,-0.0147373
2026-06-18T10:36:58.267413,+0.13,-0.33,-0.90,51.5406313,-0.0147373
2026-06-18T10:36:58.357496,+0.08,-0.13,-1.02,51.5406313,-0.0147373
2026-06-18T10:36:58.418141,+0.23,-0.22,-1.01,51.5406313,-0.0147373
2026-06-18T10:36:58.477024,+0.16,-0.27,-0.95,51.5406313,-0.0147373
2026-06-18T10:36:58.538919,+0.11,-0.24,-0.82,51.5406313,-0.0147373
2026-06-18T10:36:58.599099,+0.13,-0.23,-0.93,51.5406313,-0.0147373
2026-06-18T10:36:58.690948,+0.03,-0.25,-1.02,51.5406313,-0.0147373
2026-06-18T10:36:58.748298,+0.09,-0.31,-1.09,51.5406313,-0.0147373
2026-06-18T10:36:58.807066,+0.13,-0.23,-1.05,51.5406479,-0.0147346
2026-06-18T10:36:58.866636,+0.12,-0.28,-0.85,51.5406479,-0.0147346
2026-06-18T10:36:58.929865,+0.09,-0.22,-0.93,51.5406479,-0.0147346
2026-06-18T10:36:59.027899,+0.17,-0.36,-0.89,51.5406479,-0.0147346
2026-06-18T10:36:59.078081,+0.11,-0.22,-0.85,51.5406479,-0.0147346
2026-06-18T10:36:59.137577,+0.06,-0.15,-1.10,51.5406479,-0.0147346
2026-06-18T10:36:59.227579,+0.16,-0.26,-1.02,51.5406479,-0.0147346
2026-06-18T10:36:59.257086,+0.24,-0.28,-0.95,51.5406479,-0.0147346
2026-06-18T10:36:59.349647,+0.12,-0.19,-1.00,51.5406479,-0.0147346
2026-06-18T10:36:59.408343,+0.05,-0.18,-0.93,51.5406479,-0.0147346
2026-06-18T10:36:59.467373,+0.13,-0.20,-1.06,51.5406479,-0.0147346
2026-06-18T10:36:59.528873,+0.09,-0.32,-1.02,51.5406479,-0.0147346
2026-06-18T10:36:59.587356,+0.14,-0.29,-0.96,51.5406479,-0.0147346
2026-06-18T10:36:59.685717,+0.18,-0.24,-0.90,51.5406479,-0.0147346
2026-06-18T10:36:59.737049,+0.12,-0.28,-0.99,51.5406479,-0.0147346
2026-06-18T10:36:59.804868,+0.07,-0.28,-0.94,51.5406668,-0.0147221
2026-06-18T10:36:59.888326,+0.15,-0.24,-0.92,51.5406668,-0.0147221
2026-06-18T10:36:59.947444,+0.07,-0.15,-0.96,51.5406668,-0.0147221
2026-06-18T10:37:00.007974,+0.19,-0.30,-0.75,51.5406668,-0.0147221
2026-06-18T10:37:00.068264,+0.14,-0.31,-0.88,51.5406668,-0.0147221
2026-06-18T10:37:00.130530,+0.11,-0.23,-1.02,51.5406668,-0.0147221
2026-06-18T10:37:00.218263,+0.02,-0.21,-1.10,51.5406668,-0.0147221
2026-06-18T10:37:00.278158,+0.15,-0.31,-0.82,51.5406668,-0.0147221
2026-06-18T10:37:00.338072,+0.13,-0.32,-0.80,51.5406668,-0.0147221
2026-06-18T10:37:00.399383,+0.09,-0.36,-0.89,51.5406668,-0.0147221
2026-06-18T10:37:00.459379,+0.13,-0.25,-0.85,51.5406668,-0.0147221
2026-06-18T10:37:00.548875,+0.11,-0.26,-0.88,51.5406668,-0.0147221
2026-06-18T10:37:00.610006,+0.09,-0.10,-0.83,51.5406668,-0.0147221
2026-06-18T10:37:00.667432,+0.12,-0.21,-1.04,51.5406668,-0.0147221
2026-06-18T10:37:00.727540,+0.07,-0.23,-0.97,51.5406668,-0.0147221
2026-06-18T10:37:00.787592,+0.11,-0.23,-1.01,51.5406668,-0.0147221
2026-06-18T10:37:00.879801,+0.07,-0.17,-0.96,51.5406878,-0.0147001
2026-06-18T10:37:00.938359,+0.11,-0.14,-1.07,51.5406878,-0.0147001
2026-06-18T10:37:00.999321,+0.13,-0.16,-0.99,51.5406878,-0.0147001
2026-06-18T10:37:01.058934,+0.16,-0.23,-0.85,51.5406878,-0.0147001
2026-06-18T10:37:01.120398,+0.16,-0.25,-0.92,51.5406878,-0.0147001
2026-06-18T10:37:01.208243,+0.06,-0.15,-0.94,51.5406878,-0.0147001
2026-06-18T10:37:01.269977,+0.06,-0.21,-0.84,51.5406878,-0.0147001
2026-06-18T10:37:01.330158,+0.05,-0.16,-0.96,51.5406878,-0.0147001
2026-06-18T10:37:01.387147,+0.10,-0.12,-1.04,51.5406878,-0.0147001
2026-06-18T10:37:01.447825,+0.13,-0.36,-0.92,51.5406878,-0.0147001
2026-06-18T10:37:01.537183,+0.16,-0.33,-1.01,51.5406878,-0.0147001
2026-06-18T10:37:01.598404,+0.05,-0.22,-1.12,51.5406878,-0.0147001
2026-06-18T10:37:01.658595,+0.23,-0.38,-0.87,51.5406878,-0.0147001
2026-06-18T10:37:01.718151,+0.15,-0.24,-1.02,51.5406878,-0.0147001
2026-06-18T10:37:01.806521,+0.02,-0.17,-0.96,51.5407122,-0.0146763
2026-06-18T10:37:01.870855,+0.02,-0.19,-1.09,51.5407122,-0.0146763
2026-06-18T10:37:01.932216,+0.13,-0.25,-1.05,51.5407122,-0.0146763
2026-06-18T10:37:01.990998,+0.00,-0.07,-1.08,51.5407122,-0.0146763
2026-06-18T10:37:02.048553,+0.12,-0.24,-0.89,51.5407122,-0.0146763
2026-06-18T10:37:02.138903,+0.14,-0.27,-0.96,51.5407122,-0.0146763
2026-06-18T10:37:02.198793,+0.12,-0.21,-1.02,51.5407122,-0.0146763
2026-06-18T10:37:02.257670,+0.09,-0.24,-1.03,51.5407122,-0.0146763
2026-06-18T10:37:02.316973,+0.13,-0.22,-0.88,51.5407122,-0.0146763
2026-06-18T10:37:02.378678,+0.18,-0.30,-0.91,51.5407122,-0.0146763
2026-06-18T10:37:02.468800,+0.05,-0.18,-1.10,51.5407122,-0.0146763
2026-06-18T10:37:02.529609,+0.02,-0.22,-1.03,51.5407122,-0.0146763
2026-06-18T10:37:02.587931,+0.08,-0.18,-1.05,51.5407122,-0.0146763
2026-06-18T10:37:02.647469,+0.09,-0.22,-0.98,51.5407122,-0.0146763
2026-06-18T10:37:02.707314,+0.15,-0.28,-0.91,51.5407122,-0.0146763
2026-06-18T10:37:02.802447,+0.07,-0.18,-0.99,51.5407408,-0.0146581
2026-06-18T10:37:02.858171,+0.05,-0.22,-1.00,51.5407408,-0.0146581
2026-06-18T10:37:02.918908,+0.10,-0.20,-0.99,51.5407408,-0.0146581
2026-06-18T10:37:02.978962,+0.11,-0.20,-1.01,51.5407408,-0.0146581
2026-06-18T10:37:03.036460,+0.10,-0.15,-1.11,51.5407408,-0.0146581
2026-06-18T10:37:03.128511,+0.03,-0.16,-1.11,51.5407408,-0.0146581
2026-06-18T10:37:03.186758,+0.12,-0.22,-0.78,51.5407408,-0.0146581
2026-06-18T10:37:03.248124,+0.12,-0.24,-0.85,51.5407408,-0.0146581
2026-06-18T10:37:03.310211,-0.04,-0.19,-1.05,51.5407408,-0.0146581
2026-06-18T10:37:03.371751,+0.04,-0.15,-0.94,51.5407408,-0.0146581
2026-06-18T10:37:03.457050,+0.09,-0.20,-0.97,51.5407408,-0.0146581
2026-06-18T10:37:03.515973,+0.15,-0.28,-1.12,51.5407408,-0.0146581
2026-06-18T10:37:03.577881,+0.07,-0.20,-1.09,51.5407408,-0.0146581
2026-06-18T10:37:03.637275,+0.12,-0.15,-0.88,51.5407408,-0.0146581
2026-06-18T10:37:03.696629,+0.09,-0.26,-0.96,51.5407408,-0.0146581
2026-06-18T10:37:03.786408,+0.09,-0.06,-1.09,51.5407408,-0.0146581
2026-06-18T10:37:03.847093,+0.12,-0.13,-0.99,51.5407713,-0.0146433
2026-06-18T10:37:03.908153,-0.10,-0.07,-1.05,51.5407713,-0.0146433
2026-06-18T10:37:03.967395,+0.09,-0.22,-0.97,51.5407713,-0.0146433
2026-06-18T10:37:04.057582,+0.09,-0.26,-0.91,51.5407713,-0.0146433
2026-06-18T10:37:04.117592,+0.04,-0.16,-0.92,51.5407713,-0.0146433
2026-06-18T10:37:04.176768,+0.07,-0.19,-1.07,51.5407713,-0.0146433
2026-06-18T10:37:04.239463,+0.15,-0.21,-0.86,51.5407713,-0.0146433
2026-06-18T10:37:04.299742,+0.10,-0.20,-0.95,51.5407713,-0.0146433
2026-06-18T10:37:04.387248,+0.05,-0.15,-0.93,51.5407713,-0.0146433
2026-06-18T10:37:04.448202,-0.02,-0.21,-1.00,51.5407713,-0.0146433
2026-06-18T10:37:04.507471,+0.02,-0.25,-1.00,51.5407713,-0.0146433
2026-06-18T10:37:04.567591,+0.16,-0.24,-0.95,51.5407713,-0.0146433
2026-06-18T10:37:04.628886,+0.14,-0.23,-0.99,51.5407713,-0.0146433
2026-06-18T10:37:04.718129,+0.12,-0.24,-0.92,51.5407713,-0.0146433
2026-06-18T10:37:04.778588,+0.02,-0.06,-1.06,51.5407713,-0.0146433
2026-06-18T10:37:04.839001,+0.10,-0.24,-1.02,51.540804,-0.0146335
2026-06-18T10:37:04.897588,+0.05,-0.12,-1.02,51.540804,-0.0146335
2026-06-18T10:37:04.957546,+0.03,-0.15,-1.04,51.540804,-0.0146335
2026-06-18T10:37:05.047313,+0.03,-0.26,-0.97,51.540804,-0.0146335
2026-06-18T10:37:05.108031,+0.10,-0.20,-1.05,51.540804,-0.0146335
2026-06-18T10:37:05.167619,+0.11,-0.24,-0.91,51.540804,-0.0146335
2026-06-18T10:37:05.226979,+0.07,-0.16,-0.91,51.540804,-0.0146335
2026-06-18T10:37:05.287045,+0.17,-0.32,-0.81,51.540804,-0.0146335
2026-06-18T10:37:05.379210,+0.10,-0.24,-1.01,51.540804,-0.0146335
2026-06-18T10:37:05.436714,+0.11,-0.21,-0.99,51.540804,-0.0146335
2026-06-18T10:37:05.499562,+0.01,-0.16,-0.99,51.540804,-0.0146335
2026-06-18T10:37:05.559070,+0.08,-0.25,-0.86,51.540804,-0.0146335
2026-06-18T10:37:05.618628,+0.14,-0.35,-0.87,51.540804,-0.0146335
2026-06-18T10:37:05.708022,+0.08,-0.12,-0.99,51.540804,-0.0146335
2026-06-18T10:37:05.777525,+0.14,-0.26,-0.98,51.540804,-0.0146335
2026-06-18T10:37:05.827257,+0.11,-0.25,-0.88,51.5408375,-0.014626
2026-06-18T10:37:05.888191,+0.17,-0.25,-0.92,51.5408375,-0.014626
2026-06-18T10:37:05.976896,+0.11,-0.13,-0.87,51.5408375,-0.014626
2026-06-18T10:37:06.036698,-0.01,-0.00,-1.11,51.5408375,-0.014626
2026-06-18T10:37:06.097848,+0.06,-0.12,-1.04,51.5408375,-0.014626
2026-06-18T10:37:06.160170,+0.17,-0.21,-1.06,51.5408375,-0.014626
2026-06-18T10:37:06.218498,+0.06,-0.20,-0.95,51.5408375,-0.014626
2026-06-18T10:37:06.309273,+0.05,-0.17,-1.05,51.5408375,-0.014626
2026-06-18T10:37:06.368499,+0.10,-0.25,-0.90,51.5408375,-0.014626
2026-06-18T10:37:06.429111,+0.11,-0.23,-0.78,51.5408375,-0.014626
2026-06-18T10:37:06.488129,+0.18,-0.27,-0.83,51.5408375,-0.014626
2026-06-18T10:37:06.548473,-0.00,-0.09,-1.11,51.5408375,-0.014626
2026-06-18T10:37:06.639183,+0.06,-0.26,-0.83,51.5408375,-0.014626
2026-06-18T10:37:06.699940,+0.15,-0.28,-0.98,51.5408375,-0.014626
2026-06-18T10:37:06.758930,+0.03,-0.19,-1.03,51.5408375,-0.014626
2026-06-18T10:37:06.817711,+0.12,-0.13,-0.93,51.5408711,-0.0146156
2026-06-18T10:37:06.908937,+0.13,-0.23,-0.94,51.5408711,-0.0146156
2026-06-18T10:37:06.970330,+0.15,-0.29,-1.05,51.5408711,-0.0146156
2026-06-18T10:37:07.028618,+0.12,-0.23,-0.97,51.5408711,-0.0146156
2026-06-18T10:37:07.089923,+0.13,-0.18,-0.77,51.5408711,-0.0146156
2026-06-18T10:37:07.147777,+0.12,-0.14,-1.10,51.5408711,-0.0146156
2026-06-18T10:37:07.238994,+0.10,-0.24,-1.20,51.5408711,-0.0146156
2026-06-18T10:37:07.297791,+0.10,-0.31,-0.93,51.5408711,-0.0146156
2026-06-18T10:37:07.358380,+0.03,-0.03,-1.24,51.5408711,-0.0146156
2026-06-18T10:37:07.417576,+0.02,-0.14,-0.94,51.5408711,-0.0146156
2026-06-18T10:37:07.477566,+0.12,-0.30,-1.05,51.5408711,-0.0146156
2026-06-18T10:37:07.568354,+0.05,-0.20,-1.13,51.5408711,-0.0146156
2026-06-18T10:37:07.628722,+0.08,-0.12,-0.78,51.5408711,-0.0146156
2026-06-18T10:37:07.688350,+0.19,-0.28,-0.77,51.5408711,-0.0146156
2026-06-18T10:37:07.746955,+0.10,-0.26,-1.00,51.5408711,-0.0146156
2026-06-18T10:37:07.807243,+0.14,-0.26,-0.94,51.5409037,-0.0146026
2026-06-18T10:37:07.898222,-0.02,-0.16,-1.15,51.5409037,-0.0146026
2026-06-18T10:37:07.958293,+0.02,-0.27,-0.94,51.5409037,-0.0146026
2026-06-18T10:37:08.018295,+0.13,-0.37,-1.11,51.5409037,-0.0146026
2026-06-18T10:37:08.108484,+0.02,-0.14,-0.93,51.5409037,-0.0146026
2026-06-18T10:37:08.168005,+0.12,-0.20,-1.01,51.5409037,-0.0146026
2026-06-18T10:37:08.228393,+0.08,-0.22,-0.97,51.5409037,-0.0146026
2026-06-18T10:37:08.287480,+0.14,-0.35,-1.02,51.5409037,-0.0146026
2026-06-18T10:37:08.379357,+0.09,-0.15,-0.98,51.5409037,-0.0146026
2026-06-18T10:37:08.408634,+0.07,-0.20,-0.87,51.5409037,-0.0146026
2026-06-18T10:37:08.499441,+0.08,-0.17,-0.96,51.5409037,-0.0146026
2026-06-18T10:37:08.558180,+0.09,-0.15,-0.93,51.5409037,-0.0146026
2026-06-18T10:37:08.619468,+0.12,-0.23,-0.93,51.5409037,-0.0146026
2026-06-18T10:37:08.677857,+0.06,-0.03,-1.01,51.5409037,-0.0146026
2026-06-18T10:37:08.738449,-0.02,-0.02,-0.99,51.5409037,-0.0146026
2026-06-18T10:37:08.827153,+0.00,-0.24,-1.21,51.5409357,-0.014584
2026-06-18T10:37:08.887444,+0.01,-0.21,-1.05,51.5409357,-0.014584
2026-06-18T10:37:08.948134,-0.03,-0.09,-1.12,51.5409357,-0.014584
2026-06-18T10:37:09.007535,+0.04,-0.13,-0.98,51.5409357,-0.014584
2026-06-18T10:37:09.068904,+0.11,-0.27,-1.07,51.5409357,-0.014584
2026-06-18T10:37:09.160379,+0.13,-0.15,-0.86,51.5409357,-0.014584
2026-06-18T10:37:09.217980,+0.09,-0.23,-0.90,51.5409357,-0.014584
2026-06-18T10:37:09.278853,-0.02,-0.04,-1.05,51.5409357,-0.014584
2026-06-18T10:37:09.338862,+0.00,-0.15,-1.12,51.5409357,-0.014584
2026-06-18T10:37:09.403799,-0.01,-0.11,-1.06,51.5409357,-0.014584
2026-06-18T10:37:09.487922,+0.09,-0.21,-0.82,51.5409357,-0.014584
2026-06-18T10:37:09.547743,-0.04,-0.11,-1.23,51.5409357,-0.014584
2026-06-18T10:37:09.607317,+0.13,-0.19,-0.91,51.5409357,-0.014584
2026-06-18T10:37:09.669209,+0.08,-0.14,-0.94,51.5409357,-0.014584
2026-06-18T10:37:09.729157,+0.17,-0.46,-0.89,51.5409357,-0.014584
2026-06-18T10:37:09.817294,+0.08,-0.13,-1.08,51.5409655,-0.0145668
2026-06-18T10:37:09.907331,-0.11,-0.04,-1.02,51.5409655,-0.0145668
2026-06-18T10:37:09.938324,+0.06,-0.16,-0.95,51.5409655,-0.0145668
2026-06-18T10:37:09.999385,-0.01,-0.15,-0.85,51.5409655,-0.0145668
2026-06-18T10:37:10.090249,+0.03,-0.13,-0.95,51.5409655,-0.0145668
2026-06-18T10:37:10.148611,+0.02,-0.15,-1.19,51.5409655,-0.0145668
2026-06-18T10:37:10.207061,+0.06,-0.24,-1.07,51.5409655,-0.0145668
2026-06-18T10:37:10.268230,-0.03,-0.31,-1.31,51.5409655,-0.0145668
2026-06-18T10:37:10.328314,-0.06,-0.09,-1.02,51.5409655,-0.0145668
2026-06-18T10:37:10.419168,+0.10,-0.13,-1.25,51.5409655,-0.0145668
2026-06-18T10:37:10.479953,+0.16,-0.35,-0.88,51.5409655,-0.0145668
2026-06-18T10:37:10.538528,+0.07,-0.17,-0.94,51.5409655,-0.0145668
2026-06-18T10:37:10.599856,+0.04,-0.10,-0.96,51.5409655,-0.0145668
2026-06-18T10:37:10.660238,+0.10,-0.19,-0.97,51.5409655,-0.0145668
2026-06-18T10:37:10.748801,-0.07,-0.18,-0.89,51.5409655,-0.0145668
2026-06-18T10:37:10.807957,+0.09,-0.19,-0.88,51.54099,-0.0145535
2026-06-18T10:37:10.868597,+0.06,-0.12,-1.04,51.54099,-0.0145535
2026-06-18T10:37:10.932383,+0.11,-0.21,-1.04,51.54099,-0.0145535
2026-06-18T10:37:10.987793,+0.08,-0.20,-1.02,51.54099,-0.0145535
2026-06-18T10:37:11.080823,+0.07,-0.26,-0.92,51.54099,-0.0145535
2026-06-18T10:37:11.136402,+0.09,-0.23,-0.87,51.54099,-0.0145535
2026-06-18T10:37:11.198119,+0.06,-0.18,-0.99,51.54099,-0.0145535
2026-06-18T10:37:11.258351,-0.02,-0.27,-0.96,51.54099,-0.0145535
2026-06-18T10:37:11.319128,+0.07,-0.20,-1.09,51.54099,-0.0145535
2026-06-18T10:37:11.409064,+0.04,-0.10,-1.00,51.54099,-0.0145535
2026-06-18T10:37:11.468006,+0.17,-0.21,-1.01,51.54099,-0.0145535
2026-06-18T10:37:11.531286,+0.14,-0.22,-0.89,51.54099,-0.0145535
2026-06-18T10:37:11.588002,+0.09,-0.12,-1.03,51.54099,-0.0145535
2026-06-18T10:37:11.647227,-0.05,-0.17,-1.09,51.54099,-0.0145535
2026-06-18T10:37:11.738221,+0.15,-0.39,-0.77,51.54099,-0.0145535
2026-06-18T10:37:11.808275,+0.05,-0.19,-1.11,51.5410166,-0.0145486
2026-06-18T10:37:11.857831,+0.03,-0.15,-1.04,51.5410166,-0.0145486
2026-06-18T10:37:11.917807,-0.01,-0.20,-0.95,51.5410166,-0.0145486
2026-06-18T10:37:12.007586,+0.04,-0.14,-0.96,51.5410166,-0.0145486
2026-06-18T10:37:12.068331,+0.06,-0.17,-1.01,51.5410166,-0.0145486
2026-06-18T10:37:12.127258,+0.14,-0.14,-0.87,51.5410166,-0.0145486
2026-06-18T10:37:12.188094,+0.12,-0.23,-0.94,51.5410166,-0.0145486
2026-06-18T10:37:12.279794,+0.06,-0.15,-1.03,51.5410166,-0.0145486
2026-06-18T10:37:12.337422,+0.05,-0.27,-1.04,51.5410166,-0.0145486
2026-06-18T10:37:12.398229,-0.03,-0.19,-1.19,51.5410166,-0.0145486
2026-06-18T10:37:12.457760,+0.03,-0.07,-0.96,51.5410166,-0.0145486
2026-06-18T10:37:12.518206,+0.10,-0.36,-0.89,51.5410166,-0.0145486
2026-06-18T10:37:12.608262,+0.15,-0.23,-0.94,51.5410166,-0.0145486
2026-06-18T10:37:12.668176,+0.03,-0.10,-0.99,51.5410166,-0.0145486
2026-06-18T10:37:12.729286,+0.03,-0.11,-0.97,51.5410166,-0.0145486
2026-06-18T10:37:12.787792,-0.01,-0.21,-1.08,51.5410425,-0.0145732
2026-06-18T10:37:12.849113,-0.06,+0.12,-0.88,51.5410425,-0.0145732
2026-06-18T10:37:12.939704,-0.05,-0.04,-1.08,51.5410425,-0.0145732
2026-06-18T10:37:12.999114,+0.12,-0.28,-0.84,51.5410425,-0.0145732
2026-06-18T10:37:13.058210,+0.08,-0.15,-1.06,51.5410425,-0.0145732
2026-06-18T10:37:13.122546,+0.07,-0.25,-1.02,51.5410425,-0.0145732
2026-06-18T10:37:13.176948,+0.05,-0.18,-1.13,51.5410425,-0.0145732
2026-06-18T10:37:13.237417,+0.12,-0.29,-0.85,51.5410425,-0.0145732
2026-06-18T10:37:13.334203,+0.12,-0.09,-1.01,51.5410425,-0.0145732
2026-06-18T10:37:13.386415,+0.14,-0.27,-1.05,51.5410425,-0.0145732
2026-06-18T10:37:13.449738,+0.05,-0.12,-0.97,51.5410425,-0.0145732
2026-06-18T10:37:13.511668,-0.02,-0.10,-1.07,51.5410425,-0.0145732
2026-06-18T10:37:13.569247,+0.04,-0.24,-1.00,51.5410425,-0.0145732
2026-06-18T10:37:13.658693,+0.06,-0.25,-0.89,51.5410425,-0.0145732
2026-06-18T10:37:13.719397,+0.19,-0.28,-0.82,51.5410425,-0.0145732
2026-06-18T10:37:13.776979,+0.08,-0.26,-1.17,51.5410425,-0.0145732
2026-06-18T10:37:13.837661,+0.09,-0.16,-0.94,51.5410573,-0.0146199
2026-06-18T10:37:13.899963,+0.14,-0.22,-1.05,51.5410573,-0.0146199
2026-06-18T10:37:13.989893,+0.12,-0.27,-1.01,51.5410573,-0.0146199
2026-06-18T10:37:14.080149,+0.08,-0.08,-1.07,51.5410573,-0.0146199
2026-06-18T10:37:14.108229,+0.15,-0.16,-0.88,51.5410573,-0.0146199
2026-06-18T10:37:14.199999,+0.17,-0.28,-0.77,51.5410573,-0.0146199
2026-06-18T10:37:14.257469,+0.07,-0.14,-0.96,51.5410573,-0.0146199
2026-06-18T10:37:14.321260,+0.15,-0.34,-0.84,51.5410573,-0.0146199
2026-06-18T10:37:14.378376,+0.13,-0.21,-0.87,51.5410573,-0.0146199
2026-06-18T10:37:14.438179,+0.10,-0.18,-1.05,51.5410573,-0.0146199
2026-06-18T10:37:14.561870,+0.12,-0.19,-0.97,51.5410573,-0.0146199
2026-06-18T10:37:14.586656,+0.15,-0.30,-0.94,51.5410573,-0.0146199
2026-06-18T10:37:14.647831,+0.09,-0.24,-0.96,51.5410573,-0.0146199
2026-06-18T10:37:14.708580,+0.05,-0.16,-1.05,51.5410573,-0.0146199
2026-06-18T10:37:14.768943,+0.07,-0.18,-1.06,51.5410573,-0.0146199
2026-06-18T10:37:14.859135,+0.02,-0.17,-1.04,51.5410542,-0.0146729
2026-06-18T10:37:14.918401,+0.09,-0.26,-0.98,51.5410542,-0.0146729
2026-06-18T10:37:14.979533,+0.05,-0.23,-0.97,51.5410542,-0.0146729
2026-06-18T10:37:15.039143,+0.09,-0.29,-1.06,51.5410542,-0.0146729
2026-06-18T10:37:15.101530,+0.11,-0.19,-1.03,51.5410542,-0.0146729
2026-06-18T10:37:15.188078,+0.08,-0.25,-1.06,51.5410542,-0.0146729
2026-06-18T10:37:15.248319,+0.07,-0.24,-0.89,51.5410542,-0.0146729
2026-06-18T10:37:15.308375,+0.16,-0.16,-0.78,51.5410542,-0.0146729
2026-06-18T10:37:15.368331,+0.03,-0.06,-1.07,51.5410542,-0.0146729
2026-06-18T10:37:15.427844,+0.00,-0.19,-1.02,51.5410542,-0.0146729
2026-06-18T10:37:15.518270,+0.09,-0.39,-0.93,51.5410542,-0.0146729
2026-06-18T10:37:15.579233,-0.02,-0.15,-1.18,51.5410542,-0.0146729
2026-06-18T10:37:15.637840,+0.06,-0.37,-0.80,51.5410542,-0.0146729
2026-06-18T10:37:15.699617,-0.01,-0.03,-1.18,51.5410542,-0.0146729
2026-06-18T10:37:15.760977,+0.07,-0.25,-1.11,51.5410542,-0.0146729
2026-06-18T10:37:15.852485,+0.12,-0.33,-0.82,51.5410389,-0.0147225
2026-06-18T10:37:15.909602,+0.02,-0.20,-1.16,51.5410389,-0.0147225
2026-06-18T10:37:15.968822,+0.04,-0.16,-1.02,51.5410389,-0.0147225
2026-06-18T10:37:16.028412,+0.13,-0.27,-0.86,51.5410389,-0.0147225
2026-06-18T10:37:16.088375,+0.17,-0.30,-0.94,51.5410389,-0.0147225
2026-06-18T10:37:16.181440,+0.04,-0.20,-1.18,51.5410389,-0.0147225
2026-06-18T10:37:16.238042,+0.08,-0.25,-1.07,51.5410389,-0.0147225
2026-06-18T10:37:16.299265,-0.00,-0.05,-1.14,51.5410389,-0.0147225
2026-06-18T10:37:16.360710,+0.14,-0.19,-0.79,51.5410389,-0.0147225
2026-06-18T10:37:16.448132,+0.01,-0.01,-1.32,51.5410389,-0.0147225
2026-06-18T10:37:16.510049,+0.14,-0.25,-1.07,51.5410389,-0.0147225
2026-06-18T10:37:16.568005,+0.10,-0.16,-1.03,51.5410389,-0.0147225
2026-06-18T10:37:16.627575,+0.10,-0.19,-0.88,51.5410389,-0.0147225
2026-06-18T10:37:16.686410,-0.04,-0.22,-1.07,51.5410389,-0.0147225
2026-06-18T10:37:16.777398,-0.03,-0.04,-1.08,51.5410389,-0.0147225
2026-06-18T10:37:16.837043,+0.13,-0.18,-1.03,51.5410163,-0.014765
2026-06-18T10:37:16.897973,+0.13,-0.22,-0.94,51.5410163,-0.014765
2026-06-18T10:37:16.959148,+0.00,-0.21,-1.11,51.5410163,-0.014765
2026-06-18T10:37:17.018214,+0.12,-0.14,-0.92,51.5410163,-0.014765
2026-06-18T10:37:17.107845,+0.16,-0.24,-0.89,51.5410163,-0.014765
2026-06-18T10:37:17.169364,+0.04,-0.13,-0.97,51.5410163,-0.014765
2026-06-18T10:37:17.231234,+0.09,-0.28,-0.81,51.5410163,-0.014765
2026-06-18T10:37:17.287846,-0.13,-0.03,-1.17,51.5410163,-0.014765
2026-06-18T10:37:17.349456,+0.07,-0.24,-0.88,51.5410163,-0.014765
2026-06-18T10:37:17.438250,-0.07,-0.12,-1.23,51.5410163,-0.014765
2026-06-18T10:37:17.498545,+0.08,-0.26,-1.01,51.5410163,-0.014765
2026-06-18T10:37:17.558482,+0.06,-0.22,-1.01,51.5410163,-0.014765
2026-06-18T10:37:17.620357,+0.12,-0.33,-0.75,51.5410163,-0.014765
2026-06-18T10:37:17.679353,+0.01,-0.26,-1.09,51.5410163,-0.014765
2026-06-18T10:37:17.768879,+0.07,-0.25,-1.08,51.5410163,-0.014765
2026-06-18T10:37:17.828043,+0.15,-0.26,-0.82,51.5409956,-0.014804
2026-06-18T10:37:17.886326,+0.13,-0.26,-0.83,51.5409956,-0.014804
2026-06-18T10:37:17.948827,+0.19,-0.47,-0.59,51.5409956,-0.014804
2026-06-18T10:37:18.008359,+0.11,-0.29,-0.94,51.5409956,-0.014804
2026-06-18T10:37:18.100475,+0.02,+0.12,-1.05,51.5409956,-0.014804
2026-06-18T10:37:18.162039,+0.27,-0.45,-0.81,51.5409956,-0.014804
2026-06-18T10:37:18.217631,+0.24,-0.45,-0.99,51.5409956,-0.014804
2026-06-18T10:37:18.279970,+0.03,-0.09,-1.34,51.5409956,-0.014804
2026-06-18T10:37:18.368052,+0.06,-0.37,-0.98,51.5409956,-0.014804
2026-06-18T10:37:18.432094,+0.10,-0.32,-0.87,51.5409956,-0.014804
2026-06-18T10:37:18.488487,+0.13,-0.23,-0.92,51.5409956,-0.014804
2026-06-18T10:37:18.547729,-0.00,-0.12,-1.27,51.5409956,-0.014804
2026-06-18T10:37:18.610500,+0.07,-0.10,-1.08,51.5409956,-0.014804
2026-06-18T10:37:18.697624,+0.06,-0.16,-1.19,51.5409956,-0.014804
2026-06-18T10:37:18.760559,+0.07,-0.16,-1.08,51.5409956,-0.014804
2026-06-18T10:37:18.818995,+0.23,-0.34,-0.83,51.5409794,-0.0148468
2026-06-18T10:37:18.912119,+0.06,-0.12,-0.97,51.5409794,-0.0148468
2026-06-18T10:37:18.937966,+0.12,-0.30,-0.96,51.5409794,-0.0148468
2026-06-18T10:37:19.030540,+0.18,-0.33,-0.93,51.5409794,-0.0148468
2026-06-18T10:37:19.087408,+0.03,-0.07,-0.77,51.5409794,-0.0148468
2026-06-18T10:37:19.150479,-0.01,-0.16,-1.10,51.5409794,-0.0148468
2026-06-18T10:37:19.208393,+0.00,-0.17,-0.75,51.5409794,-0.0148468
2026-06-18T10:37:19.268304,-0.11,-0.04,-1.25,51.5409794,-0.0148468
2026-06-18T10:37:19.360344,+0.02,-0.07,-1.08,51.5409794,-0.0148468
2026-06-18T10:37:19.424759,+0.17,-0.32,-0.73,51.5409794,-0.0148468
2026-06-18T10:37:19.478091,+0.02,-0.08,-0.89,51.5409794,-0.0148468
2026-06-18T10:37:19.539579,+0.05,-0.20,-1.05,51.5409794,-0.0148468
2026-06-18T10:37:19.599108,+0.14,-0.27,-1.20,51.5409794,-0.0148468
2026-06-18T10:37:19.687504,+0.13,-0.24,-0.90,51.5409794,-0.0148468
2026-06-18T10:37:19.748425,-0.02,-0.05,-0.98,51.5409794,-0.0148468
2026-06-18T10:37:19.808224,-0.01,-0.12,-1.28,51.5409617,-0.0148885
2026-06-18T10:37:19.867525,+0.01,-0.15,-1.16,51.5409617,-0.0148885
2026-06-18T10:37:19.928791,+0.15,-0.14,-1.04,51.5409617,-0.0148885
2026-06-18T10:37:20.048076,-0.02,-0.19,-0.85,51.5409617,-0.0148885
2026-06-18T10:37:20.078415,+0.06,-0.26,-0.90,51.5409617,-0.0148885
2026-06-18T10:37:20.140797,+0.06,-0.08,-1.04,51.5409617,-0.0148885
2026-06-18T10:37:20.199733,-0.18,+0.06,-1.03,51.5409617,-0.0148885
2026-06-18T10:37:20.288427,+0.08,+0.04,-0.72,51.5409617,-0.0148885
2026-06-18T10:37:20.349105,-0.04,-0.03,-0.82,51.5409617,-0.0148885
2026-06-18T10:37:20.410911,+0.16,-0.23,-0.87,51.5409617,-0.0148885
2026-06-18T10:37:20.468859,-0.01,-0.04,-1.06,51.5409617,-0.0148885
2026-06-18T10:37:20.559464,-0.03,-0.07,-1.08,51.5409617,-0.0148885
2026-06-18T10:37:20.617110,+0.09,-0.22,-0.99,51.5409617,-0.0148885
2026-06-18T10:37:20.677231,+0.04,-0.20,-0.97,51.5409617,-0.0148885
2026-06-18T10:37:20.737088,+0.02,-0.11,-0.98,51.5409617,-0.0148885
2026-06-18T10:37:20.809870,+0.03,-0.11,-0.90,51.5409461,-0.0149171
2026-06-18T10:37:20.891322,+0.04,-0.13,-0.93,51.5409461,-0.0149171
2026-06-18T10:37:20.948627,+0.06,-0.10,-0.98,51.5409461,-0.0149171
2026-06-18T10:37:21.008443,+0.06,-0.18,-1.08,51.5409461,-0.0149171
2026-06-18T10:37:21.068133,+0.08,-0.19,-1.02,51.5409461,-0.0149171
2026-06-18T10:37:21.128152,-0.05,-0.09,-1.09,51.5409461,-0.0149171
2026-06-18T10:37:21.222340,+0.03,-0.10,-0.84,51.5409461,-0.0149171
2026-06-18T10:37:21.277745,+0.02,-0.06,-1.03,51.5409461,-0.0149171
2026-06-18T10:37:21.338614,+0.12,-0.17,-1.09,51.5409461,-0.0149171
2026-06-18T10:37:21.398039,+0.00,-0.08,-1.00,51.5409461,-0.0149171
2026-06-18T10:37:21.458608,+0.04,-0.13,-0.92,51.5409461,-0.0149171
2026-06-18T10:37:21.548338,+0.06,-0.20,-1.02,51.5409461,-0.0149171
2026-06-18T10:37:21.607756,-0.00,-0.08,-1.05,51.5409461,-0.0149171
2026-06-18T10:37:21.668967,+0.03,-0.16,-0.91,51.5409461,-0.0149171
2026-06-18T10:37:21.727937,-0.00,-0.12,-1.11,51.5409461,-0.0149171
2026-06-18T10:37:21.794494,+0.00,-0.12,-0.99,51.5409354,-0.0149355
2026-06-18T10:37:21.880340,+0.06,-0.09,-1.01,51.5409354,-0.0149355
2026-06-18T10:37:21.937515,+0.05,+0.04,-1.06,51.5409354,-0.0149355
2026-06-18T10:37:21.999480,+0.03,+0.03,-1.02,51.5409354,-0.0149355
2026-06-18T10:37:22.059622,+0.10,-0.01,-0.99,51.5409354,-0.0149355
2026-06-18T10:37:22.119943,+0.13,-0.09,-0.99,51.5409354,-0.0149355
2026-06-18T10:37:22.209501,+0.12,-0.23,-0.87,51.5409354,-0.0149355
2026-06-18T10:37:22.267357,+0.25,-0.07,-1.38,51.5409354,-0.0149355
2026-06-18T10:37:22.332713,+0.22,-0.12,-0.96,51.5409354,-0.0149355
2026-06-18T10:37:22.388336,+0.19,-0.11,-0.88,51.5409354,-0.0149355
2026-06-18T10:37:22.478542,+0.16,-0.16,-0.96,51.5409354,-0.0149355
2026-06-18T10:37:22.539445,+0.15,-0.15,-1.04,51.5409354,-0.0149355
2026-06-18T10:37:22.597925,+0.15,-0.15,-0.98,51.5409354,-0.0149355
2026-06-18T10:37:22.658806,+0.13,-0.15,-0.95,51.5409354,-0.0149355
2026-06-18T10:37:22.722423,+0.13,-0.17,-0.98,51.5409354,-0.0149355
2026-06-18T10:37:22.807576,+0.15,-0.17,-0.99,51.5409328,-0.0149396
2026-06-18T10:37:22.866932,+0.15,-0.14,-0.97,51.5409328,-0.0149396
2026-06-18T10:37:22.930390,+0.17,-0.13,-0.98,51.5409328,-0.0149396
2026-06-18T10:37:22.994367,+0.15,-0.13,-0.99,51.5409328,-0.0149396
2026-06-18T10:37:23.048077,+0.16,-0.14,-0.98,51.5409328,-0.0149396
2026-06-18T10:37:23.137887,+0.12,-0.18,-0.98,51.5409328,-0.0149396
2026-06-18T10:37:23.197098,+0.14,-0.14,-0.99,51.5409328,-0.0149396
2026-06-18T10:37:23.262430,+0.15,-0.15,-0.98,51.5409328,-0.0149396
2026-06-18T10:37:23.322818,+0.16,-0.15,-0.97,51.5409328,-0.0149396
2026-06-18T10:37:23.381255,+0.17,-0.20,-0.97,51.5409328,-0.0149396
2026-06-18T10:37:23.468723,+0.17,-0.18,-0.98,51.5409328,-0.0149396
2026-06-18T10:37:23.528503,+0.19,-0.16,-0.97,51.5409328,-0.0149396
2026-06-18T10:37:23.588041,+0.19,-0.15,-0.97,51.5409328,-0.0149396
2026-06-18T10:37:23.649984,+0.17,-0.15,-0.98,51.5409328,-0.0149396
2026-06-18T10:37:23.709445,+0.13,-0.18,-0.97,51.5409328,-0.0149396
2026-06-18T10:37:23.803117,+0.15,-0.16,-0.97,51.5409352,-0.014941
2026-06-18T10:37:23.857448,+0.16,-0.17,-0.97,51.5409352,-0.014941
2026-06-18T10:37:23.917457,+0.17,-0.17,-0.97,51.5409352,-0.014941
2026-06-18T10:37:23.976594,+0.16,-0.17,-0.97,51.5409352,-0.014941
2026-06-18T10:37:24.037411,+0.14,-0.17,-0.97,51.5409352,-0.014941
2026-06-18T10:37:24.126674,+0.15,-0.17,-0.97,51.5409352,-0.014941
2026-06-18T10:37:24.187810,+0.15,-0.15,-0.98,51.5409352,-0.014941
2026-06-18T10:37:24.281082,+0.17,-0.13,-0.98,51.5409352,-0.014941
2026-06-18T10:37:24.306350,+0.15,-0.15,-0.97,51.5409352,-0.014941
2026-06-18T10:37:24.396417,+0.15,-0.16,-0.97,51.5409352,-0.014941
2026-06-18T10:37:24.462478,+0.14,-0.16,-0.97,51.5409352,-0.014941
2026-06-18T10:37:24.519171,+0.15,-0.17,-0.97,51.5409352,-0.014941
2026-06-18T10:37:24.580131,+0.17,-0.16,-0.97,51.5409352,-0.014941
2026-06-18T10:37:24.636434,+0.16,-0.14,-0.98,51.5409352,-0.014941
2026-06-18T10:37:24.727081,+0.16,-0.14,-0.98,51.5409352,-0.014941
2026-06-18T10:37:24.788450,+0.16,-0.14,-0.97,51.5409294,-0.0149425
2026-06-18T10:37:24.847698,+0.14,-0.17,-0.97,51.5409294,-0.0149425
2026-06-18T10:37:24.907719,+0.17,-0.16,-0.97,51.5409294,-0.0149425
2026-06-18T10:37:24.967508,+0.17,-0.16,-0.98,51.5409294,-0.0149425
2026-06-18T10:37:25.057357,+0.17,-0.13,-0.98,51.5409294,-0.0149425
2026-06-18T10:37:25.117931,+0.17,-0.13,-0.98,51.5409294,-0.0149425
2026-06-18T10:37:25.178048,+0.16,-0.16,-0.97,51.5409294,-0.0149425
2026-06-18T10:37:25.238684,+0.16,-0.17,-0.97,51.5409294,-0.0149425
2026-06-18T10:37:25.297024,+0.15,-0.16,-0.97,51.5409294,-0.0149425
2026-06-18T10:37:25.387084,+0.18,-0.14,-0.97,51.5409294,-0.0149425
2026-06-18T10:37:25.447622,+0.18,-0.14,-0.97,51.5409294,-0.0149425
2026-06-18T10:37:25.508459,+0.18,-0.14,-0.98,51.5409294,-0.0149425
2026-06-18T10:37:25.567333,+0.17,-0.14,-0.97,51.5409294,-0.0149425
2026-06-18T10:37:25.628877,+0.17,-0.15,-0.98,51.5409294,-0.0149425
2026-06-18T10:37:25.726261,+0.17,-0.14,-0.98,51.5409294,-0.0149425
2026-06-18T10:37:25.777514,+0.18,-0.13,-0.98,51.5409294,-0.0149425
2026-06-18T10:37:25.838643,+0.18,-0.14,-0.97,51.5409261,-0.0149417
2026-06-18T10:37:25.900559,+0.18,-0.14,-0.98,51.5409261,-0.0149417
2026-06-18T10:37:25.958037,+0.18,-0.14,-0.97,51.5409261,-0.0149417
2026-06-18T10:37:26.048015,+0.17,-0.16,-0.97,51.5409261,-0.0149417
2026-06-18T10:37:26.108218,+0.15,-0.18,-0.97,51.5409261,-0.0149417
2026-06-18T10:37:26.168265,+0.17,-0.17,-0.97,51.5409261,-0.0149417
2026-06-18T10:37:26.245485,+0.17,-0.17,-0.97,51.5409261,-0.0149417
2026-06-18T10:37:26.293293,+0.18,-0.16,-0.97,51.5409261,-0.0149417
2026-06-18T10:37:26.378771,+0.17,-0.15,-0.97,51.5409261,-0.0149417
2026-06-18T10:37:26.440062,+0.16,-0.17,-0.97,51.5409261,-0.0149417
2026-06-18T10:37:26.499753,+0.17,-0.16,-0.97,51.5409261,-0.0149417
2026-06-18T10:37:26.588098,+0.16,-0.17,-0.97,51.5409261,-0.0149417
2026-06-18T10:37:26.648621,+0.18,-0.17,-0.97,51.5409261,-0.0149417
2026-06-18T10:37:26.707472,+0.16,-0.17,-0.97,51.5409261,-0.0149417
2026-06-18T10:37:26.819818,+0.16,-0.16,-0.97,51.5409261,-0.0149417
2026-06-18T10:37:26.828966,+0.17,-0.16,-0.98,51.540928,-0.0149347
2026-06-18T10:37:26.917653,+0.15,-0.17,-0.97,51.540928,-0.0149347
2026-06-18T10:37:26.979915,+0.16,-0.16,-0.97,51.540928,-0.0149347
2026-06-18T10:37:27.037573,+0.17,-0.15,-0.97,51.540928,-0.0149347
2026-06-18T10:37:27.099173,+0.17,-0.15,-0.98,51.540928,-0.0149347
2026-06-18T10:37:27.156363,+0.17,-0.15,-0.98,51.540928,-0.0149347
2026-06-18T10:37:27.248319,+0.17,-0.14,-0.98,51.540928,-0.0149347
2026-06-18T10:37:27.338293,+0.17,-0.15,-0.97,51.540928,-0.0149347
2026-06-18T10:37:27.366414,+0.15,-0.17,-0.98,51.540928,-0.0149347
2026-06-18T10:37:27.431493,+0.16,-0.16,-0.97,51.540928,-0.0149347
2026-06-18T10:37:27.487653,+0.17,-0.15,-0.98,51.540928,-0.0149347
2026-06-18T10:37:27.577410,+0.17,-0.16,-0.98,51.540928,-0.0149347
2026-06-18T10:37:27.637742,+0.17,-0.16,-0.97,51.540928,-0.0149347
2026-06-18T10:37:27.697296,+0.16,-0.15,-0.98,51.540928,-0.0149347
2026-06-18T10:37:27.755794,+0.16,-0.16,-0.97,51.540928,-0.0149347
2026-06-18T10:37:27.828216,+0.14,-0.17,-0.97,51.5409287,-0.01493
2026-06-18T10:37:27.909404,+0.16,-0.16,-0.98,51.5409287,-0.01493
2026-06-18T10:37:27.966881,+0.16,-0.16,-0.98,51.5409287,-0.01493
2026-06-18T10:37:28.026767,+0.16,-0.15,-0.98,51.5409287,-0.01493
2026-06-18T10:37:28.086356,+0.16,-0.17,-0.98,51.5409287,-0.01493
2026-06-18T10:37:28.146978,+0.16,-0.16,-0.97,51.5409287,-0.01493
2026-06-18T10:37:28.237006,+0.16,-0.16,-0.98,51.5409287,-0.01493
2026-06-18T10:37:28.297029,+0.16,-0.16,-0.98,51.5409287,-0.01493
2026-06-18T10:37:28.356067,+0.16,-0.16,-0.98,51.5409287,-0.01493
2026-06-18T10:37:28.417089,+0.17,-0.15,-0.98,51.5409287,-0.01493
2026-06-18T10:37:28.506918,+0.17,-0.14,-0.98,51.5409287,-0.01493
2026-06-18T10:37:28.570564,+0.16,-0.15,-0.98,51.5409287,-0.01493
2026-06-18T10:37:28.627851,+0.16,-0.16,-0.98,51.5409287,-0.01493
2026-06-18T10:37:28.687900,+0.17,-0.16,-0.97,51.5409287,-0.01493
2026-06-18T10:37:28.746884,+0.17,-0.15,-0.97,51.5409287,-0.01493
2026-06-18T10:37:28.837864,+0.17,-0.14,-0.98,51.5409303,-0.0149257
2026-06-18T10:37:28.900006,+0.16,-0.16,-0.97,51.5409303,-0.0149257
2026-06-18T10:37:28.958709,+0.17,-0.16,-0.97,51.5409303,-0.0149257
2026-06-18T10:37:29.018913,+0.16,-0.16,-0.97,51.5409303,-0.0149257
2026-06-18T10:37:29.082581,+0.16,-0.17,-0.97,51.5409303,-0.0149257
2026-06-18T10:37:29.167771,+0.16,-0.17,-0.97,51.5409303,-0.0149257
2026-06-18T10:37:29.233242,+0.16,-0.17,-0.97,51.5409303,-0.0149257
2026-06-18T10:37:29.289318,+0.15,-0.18,-0.97,51.5409303,-0.0149257
2026-06-18T10:37:29.349418,+0.15,-0.18,-0.97,51.5409303,-0.0149257
2026-06-18T10:37:29.405760,+0.16,-0.16,-0.97,51.5409303,-0.0149257
2026-06-18T10:37:29.496806,+0.16,-0.17,-0.97,51.5409303,-0.0149257
2026-06-18T10:37:29.556371,+0.17,-0.15,-0.98,51.5409303,-0.0149257
2026-06-18T10:37:29.615707,+0.16,-0.15,-0.98,51.5409303,-0.0149257
2026-06-18T10:37:29.676788,+0.17,-0.15,-0.98,51.5409303,-0.0149257
2026-06-18T10:37:29.736700,+0.16,-0.16,-0.98,51.5409303,-0.0149257
2026-06-18T10:37:29.826282,+0.17,-0.15,-0.98,51.5409301,-0.0149278
2026-06-18T10:37:29.888256,+0.16,-0.16,-0.97,51.5409301,-0.0149278
2026-06-18T10:37:29.947017,+0.17,-0.16,-0.97,51.5409301,-0.0149278
2026-06-18T10:37:30.010983,+0.16,-0.16,-0.97,51.5409301,-0.0149278
2026-06-18T10:37:30.067518,+0.17,-0.17,-0.97,51.5409301,-0.0149278
2026-06-18T10:37:30.161493,+0.16,-0.16,-0.97,51.5409301,-0.0149278
2026-06-18T10:37:30.220790,+0.16,-0.16,-0.97,51.5409301,-0.0149278
2026-06-18T10:37:30.278358,+0.16,-0.16,-0.97,51.5409301,-0.0149278
2026-06-18T10:37:30.340779,+0.16,-0.15,-0.97,51.5409301,-0.0149278
2026-06-18T10:37:30.401076,+0.16,-0.16,-0.97,51.5409301,-0.0149278
2026-06-18T10:37:30.489488,+0.16,-0.16,-0.97,51.5409301,-0.0149278
2026-06-18T10:37:30.548284,+0.16,-0.16,-0.98,51.5409301,-0.0149278
2026-06-18T10:37:30.611592,+0.16,-0.16,-0.97,51.5409301,-0.0149278
2026-06-18T10:37:30.671306,+0.16,-0.15,-0.97,51.5409301,-0.0149278
2026-06-18T10:37:30.760341,+0.16,-0.15,-0.98,51.5409301,-0.0149278
2026-06-18T10:37:30.818801,+0.16,-0.15,-0.97,51.5409306,-0.0149284
2026-06-18T10:37:30.878628,+0.16,-0.16,-0.98,51.5409306,-0.0149284
2026-06-18T10:37:30.941678,+0.17,-0.15,-0.97,51.5409306,-0.0149284
2026-06-18T10:37:31.004394,+0.17,-0.15,-0.98,51.5409306,-0.0149284
2026-06-18T10:37:31.091460,+0.16,-0.16,-0.98,51.5409306,-0.0149284
2026-06-18T10:37:31.150707,+0.16,-0.16,-0.97,51.5409306,-0.0149284
2026-06-18T10:37:31.212005,+0.16,-0.16,-0.97,51.5409306,-0.0149284
2026-06-18T10:37:31.270068,+0.16,-0.17,-0.97,51.5409306,-0.0149284
2026-06-18T10:37:31.330647,+0.16,-0.17,-0.97,51.5409306,-0.0149284
2026-06-18T10:37:31.417209,+0.15,-0.16,-0.97,51.5409306,-0.0149284