Timestamp,Acc_X,Acc_Y,Acc_Z,Latitude,Longitude
2026-06-18T10:32:52.748678,+0.15,-0.18,-0.97,51.5392404,-0.0132296
2026-06-18T10:32:52.809342,+0.15,-0.18,-0.97,51.5392312,-0.0132283
2026-06-18T10:32:52.873255,+0.15,-0.18,-0.97,51.5392312,-0.0132283
2026-06-18T10:32:52.938194,+0.15,-0.18,-0.97,51.5392312,-0.0132283
2026-06-18T10:32:52.992310,+0.16,-0.18,-0.97,51.5392312,-0.0132283
2026-06-18T10:32:53.077553,+0.17,-0.17,-0.97,51.5392312,-0.0132283
2026-06-18T10:32:53.136236,+0.17,-0.18,-0.97,51.5392312,-0.0132283
2026-06-18T10:32:53.198245,+0.18,-0.21,-0.97,51.5392312,-0.0132283
2026-06-18T10:32:53.260721,+0.11,-0.18,-0.97,51.5392312,-0.0132283
2026-06-18T10:32:53.347610,+0.14,-0.15,-0.98,51.5392312,-0.0132283
2026-06-18T10:32:53.407481,+0.13,-0.17,-0.98,51.5392312,-0.0132283
2026-06-18T10:32:53.467471,+0.15,-0.17,-0.97,51.5392312,-0.0132283
2026-06-18T10:32:53.528745,+0.17,-0.15,-0.98,51.5392312,-0.0132283
2026-06-18T10:32:53.618316,+0.18,-0.14,-0.98,51.5392312,-0.0132283
2026-06-18T10:32:53.677240,+0.16,-0.16,-0.94,51.5392312,-0.0132283
2026-06-18T10:32:53.737678,+0.15,-0.18,-0.97,51.5392312,-0.0132283
2026-06-18T10:32:53.801068,+0.14,-0.18,-0.97,51.5392327,-0.0132239
2026-06-18T10:32:53.859242,+0.15,-0.19,-0.97,51.5392327,-0.0132239
2026-06-18T10:32:53.948447,+0.15,-0.20,-0.97,51.5392327,-0.0132239
2026-06-18T10:32:54.013608,+0.16,-0.18,-0.97,51.5392327,-0.0132239
2026-06-18T10:32:54.069512,+0.16,-0.18,-0.97,51.5392327,-0.0132239
2026-06-18T10:32:54.128642,+0.18,-0.16,-0.97,51.5392327,-0.0132239
2026-06-18T10:32:54.189355,+0.16,-0.17,-0.98,51.5392327,-0.0132239
2026-06-18T10:32:54.281824,+0.14,-0.18,-0.98,51.5392327,-0.0132239
2026-06-18T10:32:54.335655,+0.15,-0.18,-0.97,51.5392327,-0.0132239
2026-06-18T10:32:54.398336,+0.14,-0.18,-0.97,51.5392327,-0.0132239
2026-06-18T10:32:54.457433,+0.15,-0.17,-0.98,51.5392327,-0.0132239
2026-06-18T10:32:54.517656,+0.14,-0.18,-0.97,51.5392327,-0.0132239
2026-06-18T10:32:54.607951,+0.13,-0.16,-0.97,51.5392327,-0.0132239
2026-06-18T10:32:54.671675,+0.12,-0.17,-0.98,51.5392327,-0.0132239
2026-06-18T10:32:54.727473,+0.12,-0.16,-0.97,51.5392327,-0.0132239
2026-06-18T10:32:54.789428,+0.11,-0.13,-0.99,51.5392338,-0.0132219
2026-06-18T10:32:54.848209,+0.12,-0.12,-0.99,51.5392338,-0.0132219
2026-06-18T10:32:54.939613,+0.12,-0.15,-0.99,51.5392338,-0.0132219
2026-06-18T10:32:54.999746,+0.12,-0.17,-0.98,51.5392338,-0.0132219
2026-06-18T10:32:55.063342,+0.09,-0.18,-0.98,51.5392338,-0.0132219
2026-06-18T10:32:55.118093,+0.02,-0.25,-0.96,51.5392338,-0.0132219
2026-06-18T10:32:55.177871,+0.03,-0.44,-0.92,51.5392338,-0.0132219
2026-06-18T10:32:55.268935,+0.29,-0.27,-0.96,51.5392338,-0.0132219
2026-06-18T10:32:55.330048,+0.28,-0.37,-0.91,51.5392338,-0.0132219
2026-06-18T10:32:55.386389,+0.32,-0.36,-0.95,51.5392338,-0.0132219
2026-06-18T10:32:55.456158,+0.38,-0.25,-0.92,51.5392338,-0.0132219
2026-06-18T10:32:55.538179,+0.31,-0.25,-0.91,51.5392338,-0.0132219
2026-06-18T10:32:55.597128,+0.39,-0.19,-0.89,51.5392338,-0.0132219
2026-06-18T10:32:55.657497,+0.36,-0.24,-0.96,51.5392338,-0.0132219
2026-06-18T10:32:55.718445,+0.37,-0.39,-0.92,51.5392338,-0.0132219
2026-06-18T10:32:55.777041,+0.39,-0.22,-0.90,51.5392338,-0.0132219
2026-06-18T10:32:55.868850,+0.38,-0.44,-0.82,51.539238,-0.0132207
2026-06-18T10:32:55.927713,+0.46,-0.47,-0.94,51.539238,-0.0132207
2026-06-18T10:32:55.989746,+0.41,-0.10,-1.02,51.539238,-0.0132207
2026-06-18T10:32:56.048687,+0.08,-0.18,-1.04,51.539238,-0.0132207
2026-06-18T10:32:56.109398,-0.08,-0.28,-1.05,51.539238,-0.0132207
2026-06-18T10:32:56.199608,+0.18,+0.00,-0.99,51.539238,-0.0132207
2026-06-18T10:32:56.257272,+0.05,-0.20,-0.97,51.539238,-0.0132207
2026-06-18T10:32:56.317073,+0.06,-0.18,-0.91,51.539238,-0.0132207
2026-06-18T10:32:56.378609,+0.06,-0.18,-0.90,51.539238,-0.0132207
2026-06-18T10:32:56.441607,+0.17,-0.28,-0.96,51.539238,-0.0132207
2026-06-18T10:32:56.529617,+0.23,-0.22,-0.97,51.539238,-0.0132207
2026-06-18T10:32:56.587130,+0.15,+0.01,-1.07,51.539238,-0.0132207
2026-06-18T10:32:56.648650,+0.12,-0.10,-0.99,51.539238,-0.0132207
2026-06-18T10:32:56.710462,+0.08,-0.33,-0.97,51.539238,-0.0132207
2026-06-18T10:32:56.770534,+0.17,-0.35,-1.13,51.539238,-0.0132207
2026-06-18T10:32:56.856814,+0.05,-0.14,-0.91,51.5392533,-0.0132187
2026-06-18T10:32:56.917276,+0.16,-0.30,-0.99,51.5392533,-0.0132187
2026-06-18T10:32:56.976088,-0.03,-0.23,-1.03,51.5392533,-0.0132187
2026-06-18T10:32:57.038412,+0.20,-0.24,-0.85,51.5392533,-0.0132187
2026-06-18T10:32:57.099142,+0.13,-0.32,-0.93,51.5392533,-0.0132187
2026-06-18T10:32:57.190655,+0.12,-0.29,-1.01,51.5392533,-0.0132187
2026-06-18T10:32:57.248304,+0.14,-0.27,-0.91,51.5392533,-0.0132187
2026-06-18T10:32:57.307675,+0.17,-0.36,-0.89,51.5392533,-0.0132187
2026-06-18T10:32:57.368943,+0.17,-0.26,-0.93,51.5392533,-0.0132187
2026-06-18T10:32:57.459369,+0.11,-0.19,-1.00,51.5392533,-0.0132187
2026-06-18T10:32:57.517756,+0.12,-0.26,-0.98,51.5392533,-0.0132187
2026-06-18T10:32:57.579723,+0.14,-0.26,-0.92,51.5392533,-0.0132187
2026-06-18T10:32:57.642633,+0.09,-0.14,-1.04,51.5392533,-0.0132187
2026-06-18T10:32:57.727671,+0.05,-0.22,-1.00,51.5392533,-0.0132187
2026-06-18T10:32:57.787274,+0.05,-0.14,-1.00,51.5392533,-0.0132187
2026-06-18T10:32:57.848705,+0.06,-0.17,-1.04,51.5392694,-0.0132197
2026-06-18T10:32:57.912113,+0.21,-0.26,-0.98,51.5392694,-0.0132197
2026-06-18T10:32:57.967807,+0.20,-0.28,-0.94,51.5392694,-0.0132197
2026-06-18T10:32:58.028035,+0.11,-0.22,-1.03,51.5392694,-0.0132197
2026-06-18T10:32:58.119456,+0.16,-0.25,-1.03,51.5392694,-0.0132197
2026-06-18T10:32:58.177908,+0.20,-0.20,-0.91,51.5392694,-0.0132197
2026-06-18T10:32:58.239935,+0.14,-0.23,-0.98,51.5392694,-0.0132197
2026-06-18T10:32:58.297904,+0.16,-0.28,-0.93,51.5392694,-0.0132197
2026-06-18T10:32:58.358948,+0.17,-0.33,-1.04,51.5392694,-0.0132197
2026-06-18T10:32:58.450177,+0.05,-0.19,-1.01,51.5392694,-0.0132197
2026-06-18T10:32:58.507028,+0.06,-0.20,-0.92,51.5392694,-0.0132197
2026-06-18T10:32:58.568195,+0.14,-0.25,-1.03,51.5392694,-0.0132197
2026-06-18T10:32:58.628669,+0.17,-0.20,-0.97,51.5392694,-0.0132197
2026-06-18T10:32:58.688110,+0.16,-0.20,-0.96,51.5392694,-0.0132197
2026-06-18T10:32:58.777008,+0.08,-0.17,-0.96,51.5392694,-0.0132197
2026-06-18T10:32:58.838198,+0.15,-0.23,-0.93,51.5392911,-0.0132226
2026-06-18T10:32:58.898410,+0.12,-0.30,-0.99,51.5392911,-0.0132226
2026-06-18T10:32:58.959816,+0.01,-0.27,-0.92,51.5392911,-0.0132226
2026-06-18T10:32:59.020522,+0.11,-0.32,-0.92,51.5392911,-0.0132226
2026-06-18T10:32:59.107143,+0.06,-0.28,-0.87,51.5392911,-0.0132226
2026-06-18T10:32:59.168757,+0.11,-0.35,-0.78,51.5392911,-0.0132226
2026-06-18T10:32:59.227572,+0.08,-0.15,-0.90,51.5392911,-0.0132226
2026-06-18T10:32:59.288759,+0.11,-0.21,-1.14,51.5392911,-0.0132226
2026-06-18T10:32:59.346667,+0.15,-0.31,-0.95,51.5392911,-0.0132226
2026-06-18T10:32:59.436210,+0.07,-0.27,-0.97,51.5392911,-0.0132226
2026-06-18T10:32:59.497111,+0.14,-0.29,-0.89,51.5392911,-0.0132226
2026-06-18T10:32:59.558418,+0.08,-0.21,-0.85,51.5392911,-0.0132226
2026-06-18T10:32:59.647522,+0.10,-0.22,-0.87,51.5392911,-0.0132226
2026-06-18T10:32:59.708981,+0.03,-0.22,-1.11,51.5392911,-0.0132226
2026-06-18T10:32:59.768638,+0.12,-0.11,-1.03,51.5392911,-0.0132226
2026-06-18T10:32:59.827839,+0.17,-0.41,-0.89,51.539316,-0.0132207
2026-06-18T10:32:59.888831,+0.06,-0.26,-1.03,51.539316,-0.0132207
2026-06-18T10:32:59.980494,+0.10,-0.26,-0.93,51.539316,-0.0132207
2026-06-18T10:33:00.037329,+0.16,-0.31,-0.94,51.539316,-0.0132207
2026-06-18T10:33:00.099243,+0.14,-0.24,-0.97,51.539316,-0.0132207
2026-06-18T10:33:00.161054,+0.10,-0.23,-1.10,51.539316,-0.0132207
2026-06-18T10:33:00.218078,+0.16,-0.17,-0.98,51.539316,-0.0132207
2026-06-18T10:33:00.312342,+0.11,-0.28,-0.95,51.539316,-0.0132207
2026-06-18T10:33:00.368451,+0.08,-0.21,-0.99,51.539316,-0.0132207
2026-06-18T10:33:00.426528,+0.16,-0.18,-0.89,51.539316,-0.0132207
2026-06-18T10:33:00.487902,+0.08,-0.19,-0.90,51.539316,-0.0132207
2026-06-18T10:33:00.547426,+0.11,-0.29,-0.84,51.539316,-0.0132207
2026-06-18T10:33:00.637623,+0.07,-0.28,-1.06,51.539316,-0.0132207
2026-06-18T10:33:00.698724,+0.11,-0.24,-0.98,51.539316,-0.0132207
2026-06-18T10:33:00.758242,+0.09,-0.24,-0.85,51.539316,-0.0132207
2026-06-18T10:33:00.816274,+0.12,-0.27,-0.81,51.5393412,-0.0132132
2026-06-18T10:33:00.879147,+0.07,-0.18,-1.00,51.5393412,-0.0132132
2026-06-18T10:33:00.968335,+0.12,-0.25,-1.11,51.5393412,-0.0132132
2026-06-18T10:33:01.031046,+0.12,-0.17,-0.86,51.5393412,-0.0132132
2026-06-18T10:33:01.087005,+0.07,-0.18,-0.98,51.5393412,-0.0132132
2026-06-18T10:33:01.147061,+0.14,-0.32,-1.01,51.5393412,-0.0132132
2026-06-18T10:33:01.207296,+0.10,-0.32,-1.03,51.5393412,-0.0132132
2026-06-18T10:33:01.297556,+0.20,-0.31,-0.83,51.5393412,-0.0132132
2026-06-18T10:33:01.357512,-0.03,-0.11,-1.30,51.5393412,-0.0132132
2026-06-18T10:33:01.419158,+0.14,-0.24,-0.96,51.5393412,-0.0132132
2026-06-18T10:33:01.479567,+0.13,-0.28,-0.95,51.5393412,-0.0132132
2026-06-18T10:33:01.568087,+0.08,-0.18,-1.17,51.5393412,-0.0132132
2026-06-18T10:33:01.627633,+0.04,-0.16,-1.10,51.5393412,-0.0132132
2026-06-18T10:33:01.687540,+0.12,-0.16,-1.00,51.5393412,-0.0132132
2026-06-18T10:33:01.747271,+0.04,-0.16,-1.05,51.5393412,-0.0132132
2026-06-18T10:33:01.807217,+0.02,-0.15,-0.98,51.5393678,-0.0131984
2026-06-18T10:33:01.898649,+0.09,-0.21,-1.03,51.5393678,-0.0131984
2026-06-18T10:33:01.956996,+0.09,-0.20,-0.84,51.5393678,-0.0131984
2026-06-18T10:33:02.015792,+0.16,-0.25,-1.00,51.5393678,-0.0131984
2026-06-18T10:33:02.078685,+0.14,-0.28,-0.97,51.5393678,-0.0131984
2026-06-18T10:33:02.138098,+0.12,-0.22,-0.92,51.5393678,-0.0131984
2026-06-18T10:33:02.227793,+0.06,-0.20,-1.00,51.5393678,-0.0131984
2026-06-18T10:33:02.289076,+0.06,-0.14,-1.12,51.5393678,-0.0131984
2026-06-18T10:33:02.346250,+0.05,-0.17,-0.88,51.5393678,-0.0131984
2026-06-18T10:33:02.406374,+0.12,-0.16,-0.89,51.5393678,-0.0131984
2026-06-18T10:33:02.467407,+0.14,-0.27,-0.91,51.5393678,-0.0131984
2026-06-18T10:33:02.558689,+0.10,-0.13,-1.07,51.5393678,-0.0131984
2026-06-18T10:33:02.617662,+0.11,-0.25,-1.02,51.5393678,-0.0131984
2026-06-18T10:33:02.677612,+0.11,-0.23,-0.86,51.5393678,-0.0131984
2026-06-18T10:33:02.738070,+0.07,-0.18,-0.94,51.5393678,-0.0131984
2026-06-18T10:33:02.800587,+0.14,-0.29,-0.86,51.5393922,-0.0131753
2026-06-18T10:33:02.887579,+0.14,-0.25,-0.83,51.5393922,-0.0131753
2026-06-18T10:33:02.948344,+0.17,-0.18,-0.97,51.5393922,-0.0131753
2026-06-18T10:33:03.013793,+0.05,-0.13,-1.06,51.5393922,-0.0131753
2026-06-18T10:33:03.067906,+0.09,-0.13,-1.09,51.5393922,-0.0131753
2026-06-18T10:33:03.127733,+0.18,-0.28,-0.66,51.5393922,-0.0131753
2026-06-18T10:33:03.217249,+0.08,-0.19,-0.84,51.5393922,-0.0131753
2026-06-18T10:33:03.278469,-0.01,-0.17,-0.97,51.5393922,-0.0131753
2026-06-18T10:33:03.337285,+0.19,-0.36,-0.85,51.5393922,-0.0131753
2026-06-18T10:33:03.398225,+0.08,-0.25,-0.99,51.5393922,-0.0131753
2026-06-18T10:33:03.460417,+0.08,-0.27,-1.04,51.5393922,-0.0131753
2026-06-18T10:33:03.548569,+0.07,-0.16,-0.91,51.5393922,-0.0131753
2026-06-18T10:33:03.608627,+0.13,-0.24,-0.98,51.5393922,-0.0131753
2026-06-18T10:33:03.667287,+0.08,-0.11,-0.91,51.5393922,-0.0131753
2026-06-18T10:33:03.728406,+0.10,-0.15,-0.77,51.5393922,-0.0131753
2026-06-18T10:33:03.816143,+0.15,-0.24,-0.89,51.5394116,-0.0131426
2026-06-18T10:33:03.879609,+0.03,-0.18,-1.08,51.5394116,-0.0131426
2026-06-18T10:33:03.938080,+0.16,-0.26,-0.93,51.5394116,-0.0131426
2026-06-18T10:33:03.998265,+0.11,-0.40,-1.08,51.5394116,-0.0131426
2026-06-18T10:33:04.058200,+0.12,-0.35,-0.96,51.5394116,-0.0131426
2026-06-18T10:33:04.148138,+0.17,-0.31,-0.89,51.5394116,-0.0131426
2026-06-18T10:33:04.207586,+0.20,-0.29,-0.89,51.5394116,-0.0131426
2026-06-18T10:33:04.267798,+0.09,-0.20,-0.87,51.5394116,-0.0131426
2026-06-18T10:33:04.327237,+0.06,-0.14,-0.83,51.5394116,-0.0131426
2026-06-18T10:33:04.387271,+0.17,-0.20,-0.62,51.5394116,-0.0131426
2026-06-18T10:33:04.478677,+0.23,-0.27,-0.68,51.5394116,-0.0131426
2026-06-18T10:33:04.538357,+0.11,-0.22,-0.84,51.5394116,-0.0131426
2026-06-18T10:33:04.598435,+0.08,-0.19,-0.99,51.5394116,-0.0131426
2026-06-18T10:33:04.657955,+0.06,-0.21,-0.93,51.5394116,-0.0131426
2026-06-18T10:33:04.717454,+0.14,-0.37,-0.99,51.5394116,-0.0131426
2026-06-18T10:33:04.817457,+0.12,-0.29,-0.98,51.5394269,-0.0131014
2026-06-18T10:33:04.867523,+0.04,-0.23,-0.97,51.5394269,-0.0131014
2026-06-18T10:33:04.928710,+0.05,-0.13,-1.11,51.5394269,-0.0131014
2026-06-18T10:33:04.986138,+0.12,-0.10,-0.90,51.5394269,-0.0131014
2026-06-18T10:33:05.048116,+0.07,-0.00,-0.92,51.5394269,-0.0131014
2026-06-18T10:33:05.137362,+0.12,-0.20,-1.08,51.5394269,-0.0131014
2026-06-18T10:33:05.198330,+0.04,-0.17,-1.03,51.5394269,-0.0131014
2026-06-18T10:33:05.257890,+0.02,-0.15,-1.15,51.5394269,-0.0131014
2026-06-18T10:33:05.317485,+0.11,-0.24,-1.15,51.5394269,-0.0131014
2026-06-18T10:33:05.378869,+0.11,-0.17,-1.02,51.5394269,-0.0131014
2026-06-18T10:33:05.468252,+0.09,-0.17,-1.13,51.5394269,-0.0131014
2026-06-18T10:33:05.556514,+0.12,-0.31,-1.08,51.5394269,-0.0131014
2026-06-18T10:33:05.586177,+0.16,-0.28,-0.95,51.5394269,-0.0131014
2026-06-18T10:33:05.647413,+0.12,-0.27,-0.75,51.5394269,-0.0131014
2026-06-18T10:33:05.738710,+0.08,-0.26,-0.88,51.5394269,-0.0131014
2026-06-18T10:33:05.797418,+0.03,-0.22,-1.00,51.5394409,-0.0130562
2026-06-18T10:33:05.857758,+0.13,-0.31,-0.86,51.5394409,-0.0130562
2026-06-18T10:33:05.917870,-0.04,-0.16,-1.39,51.5394409,-0.0130562
2026-06-18T10:33:06.008894,-0.08,-0.04,-1.35,51.5394409,-0.0130562
2026-06-18T10:33:06.068347,+0.05,-0.14,-0.99,51.5394409,-0.0130562
2026-06-18T10:33:06.125825,+0.08,-0.21,-0.80,51.5394409,-0.0130562
2026-06-18T10:33:06.188115,+0.12,-0.25,-0.91,51.5394409,-0.0130562
2026-06-18T10:33:06.246024,+0.18,-0.34,-0.93,51.5394409,-0.0130562
2026-06-18T10:33:06.339246,+0.02,-0.15,-0.83,51.5394409,-0.0130562
2026-06-18T10:33:06.398118,+0.10,-0.21,-1.14,51.5394409,-0.0130562
2026-06-18T10:33:06.457674,+0.17,-0.28,-0.92,51.5394409,-0.0130562
2026-06-18T10:33:06.519602,+0.18,-0.21,-1.01,51.5394409,-0.0130562
2026-06-18T10:33:06.579755,+0.13,-0.25,-1.05,51.5394409,-0.0130562
2026-06-18T10:33:06.668546,+0.08,-0.18,-0.98,51.5394409,-0.0130562
2026-06-18T10:33:06.729293,+0.07,-0.20,-0.97,51.5394409,-0.0130562
2026-06-18T10:33:06.785643,+0.19,-0.28,-0.95,51.5394545,-0.0130116
2026-06-18T10:33:06.848405,+0.05,-0.24,-0.92,51.5394545,-0.0130116
2026-06-18T10:33:06.907779,+0.07,-0.22,-0.92,51.5394545,-0.0130116
2026-06-18T10:33:06.997089,+0.12,-0.26,-0.86,51.5394545,-0.0130116
2026-06-18T10:33:07.056513,+0.02,-0.16,-1.09,51.5394545,-0.0130116
2026-06-18T10:33:07.119447,+0.08,-0.26,-1.01,51.5394545,-0.0130116
2026-06-18T10:33:07.176865,+0.16,-0.33,-0.82,51.5394545,-0.0130116
2026-06-18T10:33:07.298316,+0.02,-0.05,-1.04,51.5394545,-0.0130116
2026-06-18T10:33:07.327352,+0.20,-0.30,-0.81,51.5394545,-0.0130116
2026-06-18T10:33:07.390194,+0.09,-0.23,-1.04,51.5394545,-0.0130116
2026-06-18T10:33:07.446815,+0.11,-0.32,-1.08,51.5394545,-0.0130116
2026-06-18T10:33:07.508106,+0.11,-0.32,-0.98,51.5394545,-0.0130116
2026-06-18T10:33:07.569434,+0.11,-0.25,-0.81,51.5394545,-0.0130116
2026-06-18T10:33:07.657570,+0.09,-0.14,-1.06,51.5394545,-0.0130116
2026-06-18T10:33:07.716731,+0.19,-0.36,-0.86,51.5394545,-0.0130116
2026-06-18T10:33:07.776556,+0.10,-0.28,-1.03,51.5394545,-0.0130116
2026-06-18T10:33:07.838021,+0.01,-0.14,-1.13,51.5394674,-0.0129645
2026-06-18T10:33:07.929177,+0.02,-0.08,-0.95,51.5394674,-0.0129645
2026-06-18T10:33:07.989346,+0.16,-0.30,-0.95,51.5394674,-0.0129645
2026-06-18T10:33:08.049417,+0.08,-0.23,-1.01,51.5394674,-0.0129645
2026-06-18T10:33:08.109408,+0.12,-0.31,-0.93,51.5394674,-0.0129645
2026-06-18T10:33:08.167280,+0.06,-0.21,-0.78,51.5394674,-0.0129645
2026-06-18T10:33:08.258612,+0.08,-0.23,-0.99,51.5394674,-0.0129645
2026-06-18T10:33:08.316460,+0.16,-0.31,-0.96,51.5394674,-0.0129645
2026-06-18T10:33:08.378811,+0.06,-0.11,-1.15,51.5394674,-0.0129645
2026-06-18T10:33:08.437924,+0.02,-0.07,-1.10,51.5394674,-0.0129645
2026-06-18T10:33:08.499557,+0.09,-0.10,-0.85,51.5394674,-0.0129645
2026-06-18T10:33:08.588120,+0.12,-0.23,-1.00,51.5394674,-0.0129645
2026-06-18T10:33:08.648361,+0.39,-0.58,-0.14,51.5394674,-0.0129645
2026-06-18T10:33:08.707206,-0.00,-0.39,-0.82,51.5394674,-0.0129645
2026-06-18T10:33:08.771812,+0.10,-0.17,-0.79,51.5394674,-0.0129645
2026-06-18T10:33:08.857778,+0.22,-0.32,-0.89,51.5394783,-0.0129172
2026-06-18T10:33:08.917783,+0.04,-0.28,-1.28,51.5394783,-0.0129172
2026-06-18T10:33:08.978101,+0.46,-0.60,-0.79,51.5394783,-0.0129172
2026-06-18T10:33:09.037489,-0.01,-0.07,-1.25,51.5394783,-0.0129172
2026-06-18T10:33:09.098495,+0.04,-0.12,-0.90,51.5394783,-0.0129172
2026-06-18T10:33:09.158647,+0.12,-0.19,-0.94,51.5394783,-0.0129172
2026-06-18T10:33:09.247528,+0.05,-0.14,-0.94,51.5394783,-0.0129172
2026-06-18T10:33:09.307950,+0.11,-0.30,-0.70,51.5394783,-0.0129172
2026-06-18T10:33:09.368345,+0.09,-0.23,-0.95,51.5394783,-0.0129172
2026-06-18T10:33:09.427450,+0.07,-0.18,-1.09,51.5394783,-0.0129172
2026-06-18T10:33:09.486895,+0.15,-0.22,-0.86,51.5394783,-0.0129172
2026-06-18T10:33:09.577444,+0.06,-0.22,-1.02,51.5394783,-0.0129172
2026-06-18T10:33:09.640993,+0.19,-0.40,-0.91,51.5394783,-0.0129172
2026-06-18T10:33:09.698389,+0.10,-0.19,-0.85,51.5394783,-0.0129172
2026-06-18T10:33:09.758788,+0.14,-0.29,-0.94,51.5394783,-0.0129172
2026-06-18T10:33:09.848096,+0.03,-0.18,-1.06,51.5394893,-0.0128757
2026-06-18T10:33:09.913286,+0.20,-0.50,-1.11,51.5394893,-0.0128757
2026-06-18T10:33:09.967943,+0.13,-0.18,-1.11,51.5394893,-0.0128757
2026-06-18T10:33:10.025766,+0.14,-0.16,-1.01,51.5394893,-0.0128757
2026-06-18T10:33:10.087806,+0.13,-0.19,-0.80,51.5394893,-0.0128757
2026-06-18T10:33:10.179127,+0.19,-0.19,-0.82,51.5394893,-0.0128757
2026-06-18T10:33:10.236972,+0.07,-0.07,-0.95,51.5394893,-0.0128757
2026-06-18T10:33:10.298558,+0.05,-0.20,-1.02,51.5394893,-0.0128757
2026-06-18T10:33:10.359578,+0.04,-0.22,-0.96,51.5394893,-0.0128757
2026-06-18T10:33:10.417682,-0.04,-0.12,-1.40,51.5394893,-0.0128757
2026-06-18T10:33:10.508201,+0.03,-0.18,-0.90,51.5394893,-0.0128757
2026-06-18T10:33:10.568165,+0.15,-0.27,-1.08,51.5394893,-0.0128757
2026-06-18T10:33:10.627587,+0.01,-0.14,-1.03,51.5394893,-0.0128757
2026-06-18T10:33:10.687249,+0.07,-0.19,-0.96,51.5394893,-0.0128757
2026-06-18T10:33:10.747444,-0.04,-0.11,-0.82,51.5394893,-0.0128757
2026-06-18T10:33:10.838878,+0.15,-0.35,-0.94,51.5395026,-0.0128346
2026-06-18T10:33:10.898849,+0.16,-0.18,-0.84,51.5395026,-0.0128346
2026-06-18T10:33:10.959320,+0.00,-0.07,-1.21,51.5395026,-0.0128346
2026-06-18T10:33:11.017969,+0.02,-0.24,-1.01,51.5395026,-0.0128346
2026-06-18T10:33:11.079297,+0.10,-0.15,-1.02,51.5395026,-0.0128346
2026-06-18T10:33:11.167201,+0.04,-0.23,-0.88,51.5395026,-0.0128346
2026-06-18T10:33:11.229015,+0.12,-0.16,-0.91,51.5395026,-0.0128346
2026-06-18T10:33:11.293714,+0.07,-0.08,-0.95,51.5395026,-0.0128346
2026-06-18T10:33:11.348647,+0.05,-0.08,-1.15,51.5395026,-0.0128346
2026-06-18T10:33:11.409439,+0.16,-0.18,-1.01,51.5395026,-0.0128346
2026-06-18T10:33:11.498661,+0.14,-0.20,-0.97,51.5395026,-0.0128346
2026-06-18T10:33:11.559074,+0.04,-0.24,-1.09,51.5395026,-0.0128346
2026-06-18T10:33:11.616932,+0.10,-0.22,-1.01,51.5395026,-0.0128346
2026-06-18T10:33:11.678601,-0.01,-0.15,-1.05,51.5395026,-0.0128346
2026-06-18T10:33:11.767599,+0.13,-0.24,-0.91,51.5395026,-0.0128346
2026-06-18T10:33:11.827107,+0.11,-0.09,-0.94,51.5395131,-0.0127865
2026-06-18T10:33:11.888094,+0.07,-0.14,-1.00,51.5395131,-0.0127865
2026-06-18T10:33:11.948435,+0.09,-0.17,-0.96,51.5395131,-0.0127865
2026-06-18T10:33:12.007959,-0.02,-0.10,-1.40,51.5395131,-0.0127865
2026-06-18T10:33:12.098418,-0.05,-0.08,-0.94,51.5395131,-0.0127865
2026-06-18T10:33:12.157389,+0.15,-0.40,-0.92,51.5395131,-0.0127865
2026-06-18T10:33:12.220617,+0.03,-0.13,-1.07,51.5395131,-0.0127865
2026-06-18T10:33:12.279039,+0.06,-0.15,-0.98,51.5395131,-0.0127865
2026-06-18T10:33:12.337285,+0.06,-0.20,-0.92,51.5395131,-0.0127865
2026-06-18T10:33:12.430931,+0.12,-0.14,-0.84,51.5395131,-0.0127865
2026-06-18T10:33:12.487979,+0.19,-0.31,-0.64,51.5395131,-0.0127865
2026-06-18T10:33:12.549288,+0.07,-0.18,-0.99,51.5395131,-0.0127865
2026-06-18T10:33:12.606994,+0.13,-0.24,-0.84,51.5395131,-0.0127865
2026-06-18T10:33:12.667765,+0.12,-0.12,-0.79,51.5395131,-0.0127865
2026-06-18T10:33:12.757499,+0.15,-0.20,-1.02,51.5395131,-0.0127865
2026-06-18T10:33:12.816298,+0.09,-0.26,-1.18,51.5395125,-0.012738
2026-06-18T10:33:12.878793,+0.11,-0.22,-0.87,51.5395125,-0.012738
2026-06-18T10:33:12.937941,+0.07,-0.20,-1.04,51.5395125,-0.012738
2026-06-18T10:33:12.997896,+0.05,-0.16,-0.93,51.5395125,-0.012738
2026-06-18T10:33:13.087992,+0.13,-0.26,-1.02,51.5395125,-0.012738
2026-06-18T10:33:13.148060,+0.09,-0.15,-1.00,51.5395125,-0.012738
2026-06-18T10:33:13.211525,-0.03,-0.06,-1.09,51.5395125,-0.012738
2026-06-18T10:33:13.269412,+0.07,-0.13,-1.08,51.5395125,-0.012738
2026-06-18T10:33:13.327505,+0.07,-0.21,-0.84,51.5395125,-0.012738
2026-06-18T10:33:13.417968,+0.11,-0.21,-0.98,51.5395125,-0.012738
2026-06-18T10:33:13.477809,+0.06,-0.17,-0.88,51.5395125,-0.012738
2026-06-18T10:33:13.538687,+0.19,-0.35,-0.77,51.5395125,-0.012738
2026-06-18T10:33:13.597254,+0.10,-0.21,-0.96,51.5395125,-0.012738
2026-06-18T10:33:13.657557,+0.06,-0.17,-0.97,51.5395125,-0.012738
2026-06-18T10:33:13.748004,+0.05,-0.18,-0.97,51.5395125,-0.012738
2026-06-18T10:33:13.808919,+0.09,-0.24,-0.88,51.5395034,-0.0126928
2026-06-18T10:33:13.868566,+0.04,-0.11,-1.05,51.5395034,-0.0126928
2026-06-18T10:33:13.959515,-0.04,-0.04,-1.13,51.5395034,-0.0126928
2026-06-18T10:33:14.017474,+0.11,-0.21,-0.96,51.5395034,-0.0126928
2026-06-18T10:33:14.077154,+0.08,-0.19,-1.04,51.5395034,-0.0126928
2026-06-18T10:33:14.137394,+0.07,-0.25,-1.06,51.5395034,-0.0126928
2026-06-18T10:33:14.197437,+0.04,-0.14,-1.17,51.5395034,-0.0126928
2026-06-18T10:33:14.292386,+0.01,-0.13,-1.05,51.5395034,-0.0126928
2026-06-18T10:33:14.350882,-0.02,-0.04,-0.95,51.5395034,-0.0126928
2026-06-18T10:33:14.407847,-0.05,-0.06,-1.12,51.5395034,-0.0126928
2026-06-18T10:33:14.468313,-0.02,-0.09,-0.93,51.5395034,-0.0126928
2026-06-18T10:33:14.528415,+0.07,-0.18,-0.86,51.5395034,-0.0126928
2026-06-18T10:33:14.620630,+0.02,-0.05,-1.00,51.5395034,-0.0126928
2026-06-18T10:33:14.677430,+0.05,-0.14,-1.02,51.5395034,-0.0126928
2026-06-18T10:33:14.737545,-0.06,-0.06,-1.10,51.5395034,-0.0126928
2026-06-18T10:33:14.812148,+0.00,-0.04,-1.07,51.5394919,-0.0126542
2026-06-18T10:33:14.858922,-0.01,-0.07,-1.03,51.5394919,-0.0126542
2026-06-18T10:33:14.948580,-0.01,-0.03,-1.10,51.5394919,-0.0126542
2026-06-18T10:33:15.005988,-0.08,-0.02,-0.91,51.5394919,-0.0126542
2026-06-18T10:33:15.067431,-0.04,-0.11,-0.99,51.5394919,-0.0126542
2026-06-18T10:33:15.128247,-0.03,-0.04,-1.00,51.5394919,-0.0126542
2026-06-18T10:33:15.188910,+0.09,+0.01,-0.90,51.5394919,-0.0126542
2026-06-18T10:33:15.278249,-0.07,-0.03,-1.11,51.5394919,-0.0126542
2026-06-18T10:33:15.342052,+0.05,-0.19,-0.98,51.5394919,-0.0126542
2026-06-18T10:33:15.398077,+0.08,-0.19,-1.08,51.5394919,-0.0126542
2026-06-18T10:33:15.458385,+0.05,-0.12,-1.05,51.5394919,-0.0126542
2026-06-18T10:33:15.518041,-0.01,-0.06,-0.97,51.5394919,-0.0126542
2026-06-18T10:33:15.609877,+0.01,+0.04,-1.06,51.5394919,-0.0126542
2026-06-18T10:33:15.667204,+0.09,+0.15,-1.00,51.5394919,-0.0126542
2026-06-18T10:33:15.727771,+0.07,+0.02,-0.98,51.5394919,-0.0126542
2026-06-18T10:33:15.786522,+0.12,+0.04,-1.03,51.5394919,-0.0126542
2026-06-18T10:33:15.850405,+0.25,-0.07,-1.00,51.5394853,-0.0126313
2026-06-18T10:33:15.939284,+0.07,-0.03,-1.00,51.5394853,-0.0126313
2026-06-18T10:33:15.997771,+0.18,+0.08,-0.91,51.5394853,-0.0126313
2026-06-18T10:33:16.057119,+0.19,-0.04,-1.10,51.5394853,-0.0126313
2026-06-18T10:33:16.118019,+0.27,-0.05,-0.99,51.5394853,-0.0126313
2026-06-18T10:33:16.208154,+0.28,-0.06,-0.95,51.5394853,-0.0126313
2026-06-18T10:33:16.269490,+0.23,-0.06,-0.97,51.5394853,-0.0126313
2026-06-18T10:33:16.328651,+0.20,-0.04,-0.99,51.5394853,-0.0126313
2026-06-18T10:33:16.386872,+0.24,-0.05,-0.98,51.5394853,-0.0126313
2026-06-18T10:33:16.451414,+0.23,-0.10,-0.98,51.5394853,-0.0126313
2026-06-18T10:33:16.537560,+0.21,-0.08,-0.99,51.5394853,-0.0126313
2026-06-18T10:33:16.597168,+0.19,-0.06,-0.98,51.5394853,-0.0126313
2026-06-18T10:33:16.664175,+0.20,-0.14,-0.97,51.5394853,-0.0126313
2026-06-18T10:33:16.718680,+0.21,-0.18,-0.97,51.5394853,-0.0126313
2026-06-18T10:33:16.780114,+0.24,-0.08,-0.98,51.5394853,-0.0126313
2026-06-18T10:33:16.869186,+0.22,-0.07,-0.98,51.5394849,-0.0126275
2026-06-18T10:33:16.932601,+0.22,-0.07,-0.98,51.5394849,-0.0126275
2026-06-18T10:33:16.987391,+0.20,-0.10,-0.98,51.5394849,-0.0126275
2026-06-18T10:33:17.048178,+0.15,-0.13,-0.98,51.5394849,-0.0126275
2026-06-18T10:33:17.108479,+0.20,-0.12,-0.98,51.5394849,-0.0126275
2026-06-18T10:33:17.199426,+0.18,-0.11,-0.97,51.5394849,-0.0126275
2026-06-18T10:33:17.256536,+0.20,-0.09,-0.98,51.5394849,-0.0126275
2026-06-18T10:33:17.318803,+0.15,-0.13,-0.98,51.5394849,-0.0126275
2026-06-18T10:33:17.377604,+0.23,-0.08,-0.99,51.5394849,-0.0126275
2026-06-18T10:33:17.438523,+0.22,-0.10,-0.98,51.5394849,-0.0126275
2026-06-18T10:33:17.528946,+0.23,-0.09,-0.97,51.5394849,-0.0126275
2026-06-18T10:33:17.591159,+0.23,-0.07,-0.98,51.5394849,-0.0126275
2026-06-18T10:33:17.653091,+0.22,-0.08,-0.98,51.5394849,-0.0126275
2026-06-18T10:33:17.708204,+0.25,-0.10,-0.98,51.5394849,-0.0126275
2026-06-18T10:33:17.766168,+0.20,-0.11,-0.97,51.5394849,-0.0126275
2026-06-18T10:33:17.855887,+0.21,-0.10,-0.98,51.5394881,-0.0126266
2026-06-18T10:33:17.921851,+0.21,-0.11,-0.97,51.5394881,-0.0126266
2026-06-18T10:33:17.976681,+0.22,-0.12,-0.98,51.5394881,-0.0126266
2026-06-18T10:33:18.038269,+0.23,-0.08,-0.98,51.5394881,-0.0126266
2026-06-18T10:33:18.126630,+0.22,-0.09,-0.98,51.5394881,-0.0126266
2026-06-18T10:33:18.190231,+0.22,-0.11,-0.97,51.5394881,-0.0126266
2026-06-18T10:33:18.247930,+0.21,-0.10,-0.98,51.5394881,-0.0126266
2026-06-18T10:33:18.305889,+0.22,-0.10,-0.98,51.5394881,-0.0126266
2026-06-18T10:33:18.367724,+0.20,-0.11,-0.97,51.5394881,-0.0126266
2026-06-18T10:33:18.458607,+0.22,-0.10,-0.98,51.5394881,-0.0126266
2026-06-18T10:33:18.517082,+0.20,-0.09,-0.98,51.5394881,-0.0126266
2026-06-18T10:33:18.579551,+0.21,-0.11,-0.98,51.5394881,-0.0126266
2026-06-18T10:33:18.638627,+0.21,-0.11,-0.98,51.5394881,-0.0126266
2026-06-18T10:33:18.697925,+0.20,-0.11,-0.98,51.5394881,-0.0126266
2026-06-18T10:33:18.785858,+0.21,-0.11,-0.98,51.5394881,-0.0126266
2026-06-18T10:33:18.850190,+0.19,-0.11,-0.98,51.5394881,-0.0126246
2026-06-18T10:33:18.939038,+0.22,-0.10,-0.98,51.5394881,-0.0126246
2026-06-18T10:33:18.966903,+0.20,-0.12,-0.98,51.5394881,-0.0126246
2026-06-18T10:33:19.029719,+0.22,-0.11,-0.98,51.5394881,-0.0126246
2026-06-18T10:33:19.120314,+0.22,-0.09,-0.98,51.5394881,-0.0126246
2026-06-18T10:33:19.180590,+0.20,-0.12,-0.98,51.5394881,-0.0126246
2026-06-18T10:33:19.238646,+0.22,-0.12,-0.98,51.5394881,-0.0126246
2026-06-18T10:33:19.297112,+0.18,-0.11,-0.98,51.5394881,-0.0126246
2026-06-18T10:33:19.360865,+0.23,-0.11,-0.98,51.5394881,-0.0126246
2026-06-18T10:33:19.448100,+0.23,-0.13,-0.98,51.5394881,-0.0126246
2026-06-18T10:33:19.509289,+0.23,-0.08,-0.98,51.5394881,-0.0126246
2026-06-18T10:33:19.567272,+0.21,-0.08,-0.98,51.5394881,-0.0126246
2026-06-18T10:33:19.630405,+0.19,-0.10,-0.98,51.5394881,-0.0126246
2026-06-18T10:33:19.690586,+0.18,-0.11,-0.98,51.5394881,-0.0126246
2026-06-18T10:33:19.782169,+0.19,-0.11,-0.98,51.5394881,-0.0126246
2026-06-18T10:33:19.836641,+0.19,-0.11,-0.98,51.5394926,-0.0126162
2026-06-18T10:33:19.898402,+0.20,-0.12,-0.98,51.5394926,-0.0126162
2026-06-18T10:33:19.959559,+0.18,-0.12,-0.97,51.5394926,-0.0126162
2026-06-18T10:33:20.048435,+0.21,-0.11,-0.98,51.5394926,-0.0126162
2026-06-18T10:33:20.109687,+0.20,-0.12,-0.98,51.5394926,-0.0126162
2026-06-18T10:33:20.168358,+0.21,-0.11,-0.98,51.5394926,-0.0126162
2026-06-18T10:33:20.227358,+0.22,-0.09,-0.98,51.5394926,-0.0126162
2026-06-18T10:33:20.317845,+0.20,-0.10,-0.98,51.5394926,-0.0126162
2026-06-18T10:33:20.377442,+0.18,-0.13,-0.98,51.5394926,-0.0126162
2026-06-18T10:33:20.439492,+0.18,-0.13,-0.97,51.5394926,-0.0126162
2026-06-18T10:33:20.497061,+0.18,-0.12,-0.98,51.5394926,-0.0126162
2026-06-18T10:33:20.557813,+0.22,-0.11,-0.98,51.5394926,-0.0126162
2026-06-18T10:33:20.617672,+0.19,-0.12,-0.98,51.5394926,-0.0126162
2026-06-18T10:33:20.708143,+0.21,-0.11,-0.98,51.5394926,-0.0126162
2026-06-18T10:33:20.765974,+0.18,-0.13,-0.98,51.5394926,-0.0126162
2026-06-18T10:33:20.831572,+0.20,-0.12,-0.98,51.5394962,-0.0126107
2026-06-18T10:33:20.889287,+0.19,-0.12,-0.98,51.5394962,-0.0126107
2026-06-18T10:33:20.948764,+0.20,-0.10,-0.98,51.5394962,-0.0126107
2026-06-18T10:33:21.040797,+0.20,-0.11,-0.98,51.5394962,-0.0126107
2026-06-18T10:33:21.097650,+0.20,-0.11,-0.98,51.5394962,-0.0126107
2026-06-18T10:33:21.159379,+0.20,-0.11,-0.98,51.5394962,-0.0126107
2026-06-18T10:33:21.216993,+0.23,-0.09,-0.98,51.5394962,-0.0126107
2026-06-18T10:33:21.307843,+0.18,-0.11,-0.98,51.5394962,-0.0126107
2026-06-18T10:33:21.367733,+0.18,-0.13,-0.97,51.5394962,-0.0126107
2026-06-18T10:33:21.427721,+0.19,-0.11,-0.98,51.5394962,-0.0126107
2026-06-18T10:33:21.487972,+0.21,-0.11,-0.98,51.5394962,-0.0126107
2026-06-18T10:33:21.546683,+0.21,-0.11,-0.98,51.5394962,-0.0126107
2026-06-18T10:33:21.608657,+0.20,-0.12,-0.97,51.5394962,-0.0126107
2026-06-18T10:33:21.698691,+0.20,-0.12,-0.98,51.5394962,-0.0126107
2026-06-18T10:33:21.758223,+0.20,-0.13,-0.98,51.5394962,-0.0126107