Timestamp,Acc_X,Acc_Y,Acc_Z,Latitude,Longitude
2026-06-18T10:44:43.960211,+0.13,-0.15,-0.99,51.5386126,-0.0102607
2026-06-18T10:44:44.050100,+0.13,-0.18,-0.98,51.5386126,-0.0102607
2026-06-18T10:44:44.107833,+0.12,-0.18,-0.97,51.5386126,-0.0102607
2026-06-18T10:44:44.167540,+0.11,-0.17,-0.97,51.5386126,-0.0102607
2026-06-18T10:44:44.226691,+0.10,-0.17,-0.98,51.5386126,-0.0102607
2026-06-18T10:44:44.288977,+0.11,-0.16,-0.98,51.5386126,-0.0102607
2026-06-18T10:44:44.388479,+0.13,-0.17,-0.98,51.5386126,-0.0102607
2026-06-18T10:44:44.438418,+0.15,-0.18,-0.97,51.5386126,-0.0102607
2026-06-18T10:44:44.501859,+0.13,-0.18,-0.98,51.5386126,-0.0102607
2026-06-18T10:44:44.558547,+0.11,-0.18,-0.98,51.5386126,-0.0102607
2026-06-18T10:44:44.615386,+0.11,-0.18,-0.98,51.5386126,-0.0102607
2026-06-18T10:44:44.705509,+0.15,-0.13,-0.98,51.5386126,-0.0102607
2026-06-18T10:44:44.766546,+0.16,-0.11,-0.99,51.5386126,-0.0102607
2026-06-18T10:44:44.827061,+0.11,-0.16,-0.98,51.5386113,-0.0102592
2026-06-18T10:44:44.889535,+0.09,-0.19,-0.97,51.5386113,-0.0102592
2026-06-18T10:44:44.947663,+0.11,-0.19,-0.97,51.5386113,-0.0102592
2026-06-18T10:44:45.036572,+0.11,-0.19,-0.97,51.5386113,-0.0102592
2026-06-18T10:44:45.097869,+0.10,-0.20,-0.97,51.5386113,-0.0102592
2026-06-18T10:44:45.157775,+0.13,-0.18,-0.97,51.5386113,-0.0102592
2026-06-18T10:44:45.222661,+0.14,-0.16,-0.98,51.5386113,-0.0102592
2026-06-18T10:44:45.278783,+0.13,-0.16,-0.98,51.5386113,-0.0102592
2026-06-18T10:44:45.367773,+0.11,-0.17,-0.98,51.5386113,-0.0102592
2026-06-18T10:44:45.427580,+0.11,-0.17,-0.98,51.5386113,-0.0102592
2026-06-18T10:44:45.488685,+0.13,-0.17,-0.97,51.5386113,-0.0102592
2026-06-18T10:44:45.550115,+0.12,-0.18,-0.97,51.5386113,-0.0102592
2026-06-18T10:44:45.608964,+0.10,-0.18,-0.97,51.5386113,-0.0102592
2026-06-18T10:44:45.698060,+0.10,-0.18,-0.97,51.5386113,-0.0102592
2026-06-18T10:44:45.757691,+0.10,-0.18,-0.97,51.5386113,-0.0102592
2026-06-18T10:44:45.825024,+0.11,-0.18,-0.98,51.5386114,-0.0102553
2026-06-18T10:44:45.877771,+0.11,-0.18,-0.98,51.5386114,-0.0102553
2026-06-18T10:44:45.967192,+0.11,-0.17,-0.98,51.5386114,-0.0102553
2026-06-18T10:44:46.055741,+0.11,-0.17,-0.98,51.5386114,-0.0102553
2026-06-18T10:44:46.087293,+0.11,-0.17,-0.98,51.5386114,-0.0102553
2026-06-18T10:44:46.177958,+0.12,-0.16,-0.98,51.5386114,-0.0102553
2026-06-18T10:44:46.237316,+0.12,-0.15,-0.98,51.5386114,-0.0102553
2026-06-18T10:44:46.301525,+0.12,-0.14,-0.99,51.5386114,-0.0102553
2026-06-18T10:44:46.356562,+0.10,-0.13,-0.99,51.5386114,-0.0102553
2026-06-18T10:44:46.419542,+0.06,-0.15,-0.99,51.5386114,-0.0102553
2026-06-18T10:44:46.477304,+0.01,-0.18,-0.98,51.5386114,-0.0102553
2026-06-18T10:44:46.538776,-0.05,-0.33,-0.99,51.5386114,-0.0102553
2026-06-18T10:44:46.629408,+0.11,-0.33,-0.91,51.5386114,-0.0102553
2026-06-18T10:44:46.685788,+0.00,-0.33,-0.91,51.5386114,-0.0102553
2026-06-18T10:44:46.748789,+0.02,-0.37,-0.87,51.5386114,-0.0102553
2026-06-18T10:44:46.808686,+0.28,-0.12,-0.92,51.5386118,-0.0102554
2026-06-18T10:44:46.866953,+0.40,-0.03,-0.87,51.5386118,-0.0102554
2026-06-18T10:44:46.958510,+0.20,-0.17,-0.96,51.5386118,-0.0102554
2026-06-18T10:44:47.018270,+0.18,-0.05,-1.04,51.5386118,-0.0102554
2026-06-18T10:44:47.109544,+0.29,+0.05,-1.03,51.5386118,-0.0102554
2026-06-18T10:44:47.136566,+0.26,-0.19,-0.91,51.5386118,-0.0102554
2026-06-18T10:44:47.198970,+0.23,-0.30,-0.93,51.5386118,-0.0102554
2026-06-18T10:44:47.289282,+0.27,-0.02,-0.98,51.5386118,-0.0102554
2026-06-18T10:44:47.348320,+0.06,+0.01,-1.03,51.5386118,-0.0102554
2026-06-18T10:44:47.409067,+0.15,-0.05,-1.00,51.5386118,-0.0102554
2026-06-18T10:44:47.468306,+0.36,-0.12,-0.95,51.5386118,-0.0102554
2026-06-18T10:44:47.530314,+0.18,-0.14,-1.00,51.5386118,-0.0102554
2026-06-18T10:44:47.618997,+0.35,-0.10,-0.98,51.5386118,-0.0102554
2026-06-18T10:44:47.680624,+0.20,-0.12,-0.96,51.5386118,-0.0102554
2026-06-18T10:44:47.737924,+0.29,-0.26,-0.96,51.5386118,-0.0102554
2026-06-18T10:44:47.797767,+0.21,-0.18,-0.97,51.5386136,-0.0102592
2026-06-18T10:44:47.889881,+0.56,-0.34,-0.96,51.5386136,-0.0102592
2026-06-18T10:44:47.947606,+0.40,-0.27,-0.98,51.5386136,-0.0102592
2026-06-18T10:44:48.007797,+0.35,-0.18,-0.95,51.5386136,-0.0102592
2026-06-18T10:44:48.068349,+0.37,-0.20,-0.93,51.5386136,-0.0102592
2026-06-18T10:44:48.157672,+0.36,-0.20,-0.93,51.5386136,-0.0102592
2026-06-18T10:44:48.219814,+0.43,-0.29,-0.87,51.5386136,-0.0102592
2026-06-18T10:44:48.279578,+0.20,-0.39,-0.82,51.5386136,-0.0102592
2026-06-18T10:44:48.338229,+0.32,-0.22,-0.88,51.5386136,-0.0102592
2026-06-18T10:44:48.399233,+0.10,-0.14,-0.97,51.5386136,-0.0102592
2026-06-18T10:44:48.487127,+0.07,-0.04,-1.08,51.5386136,-0.0102592
2026-06-18T10:44:48.547730,+0.21,-0.24,-0.93,51.5386136,-0.0102592
2026-06-18T10:44:48.638358,+0.20,-0.34,-0.90,51.5386136,-0.0102592
2026-06-18T10:44:48.697,+0.06,-0.30,-1.02,51.5386136,-0.0102592
2026-06-18T10:44:48.728371,+0.18,-0.28,-0.98,51.5386136,-0.0102592
2026-06-18T10:44:48.818097,+0.27,-0.21,-0.97,51.5386192,-0.0102664
2026-06-18T10:44:48.877402,+0.20,-0.09,-0.96,51.5386192,-0.0102664
2026-06-18T10:44:48.939621,+0.02,+0.03,-0.97,51.5386192,-0.0102664
2026-06-18T10:44:48.998371,+0.18,-0.45,-1.15,51.5386192,-0.0102664
2026-06-18T10:44:49.089711,+0.14,-0.33,-0.98,51.5386192,-0.0102664
2026-06-18T10:44:49.148394,+0.05,-0.05,-0.99,51.5386192,-0.0102664
2026-06-18T10:44:49.208844,+0.06,-0.27,-0.97,51.5386192,-0.0102664
2026-06-18T10:44:49.267810,+0.11,-0.41,-0.96,51.5386192,-0.0102664
2026-06-18T10:44:49.328183,+0.16,-0.17,-1.01,51.5386192,-0.0102664
2026-06-18T10:44:49.387748,+0.11,-0.22,-0.97,51.5386192,-0.0102664
2026-06-18T10:44:49.478393,+0.11,-0.24,-0.88,51.5386192,-0.0102664
2026-06-18T10:44:49.537914,+0.14,-0.24,-1.11,51.5386192,-0.0102664
2026-06-18T10:44:49.599284,+0.16,-0.20,-0.98,51.5386192,-0.0102664
2026-06-18T10:44:49.717596,+0.16,-0.34,-0.87,51.5386192,-0.0102664
2026-06-18T10:44:49.776587,+0.05,-0.22,-1.04,51.5386192,-0.0102664
2026-06-18T10:44:49.822449,+0.05,-0.15,-1.04,51.5386334,-0.0102794
2026-06-18T10:44:49.867331,+0.13,-0.28,-0.90,51.5386334,-0.0102794
2026-06-18T10:44:49.929158,+0.14,-0.23,-0.94,51.5386334,-0.0102794
2026-06-18T10:44:49.987613,+0.22,-0.20,-0.90,51.5386334,-0.0102794
2026-06-18T10:44:50.077052,+0.01,-0.17,-0.98,51.5386334,-0.0102794
2026-06-18T10:44:50.146340,+0.10,-0.24,-0.90,51.5386334,-0.0102794
2026-06-18T10:44:50.197065,+0.11,-0.30,-0.87,51.5386334,-0.0102794
2026-06-18T10:44:50.256913,+0.16,-0.28,-0.94,51.5386334,-0.0102794
2026-06-18T10:44:50.317579,+0.14,-0.19,-1.06,51.5386334,-0.0102794
2026-06-18T10:44:50.437510,+0.07,-0.16,-1.02,51.5386334,-0.0102794
2026-06-18T10:44:50.466409,+0.16,-0.27,-0.89,51.5386334,-0.0102794
2026-06-18T10:44:50.528382,+0.16,-0.30,-0.92,51.5386334,-0.0102794
2026-06-18T10:44:50.588392,+0.05,-0.17,-0.95,51.5386334,-0.0102794
2026-06-18T10:44:50.650413,+0.05,-0.19,-1.01,51.5386334,-0.0102794
2026-06-18T10:44:50.737839,+0.08,-0.21,-0.87,51.5386334,-0.0102794
2026-06-18T10:44:50.796352,+0.12,-0.26,-0.93,51.5386564,-0.0102938
2026-06-18T10:44:50.858072,+0.06,-0.18,-0.96,51.5386564,-0.0102938
2026-06-18T10:44:50.918289,+0.02,-0.17,-1.05,51.5386564,-0.0102938
2026-06-18T10:44:50.976999,+0.07,-0.16,-1.07,51.5386564,-0.0102938
2026-06-18T10:44:51.067574,+0.17,-0.25,-0.91,51.5386564,-0.0102938
2026-06-18T10:44:51.131708,+0.11,-0.27,-0.95,51.5386564,-0.0102938
2026-06-18T10:44:51.187356,+0.10,-0.21,-0.88,51.5386564,-0.0102938
2026-06-18T10:44:51.248628,+0.03,-0.12,-1.15,51.5386564,-0.0102938
2026-06-18T10:44:51.308887,+0.16,-0.30,-0.89,51.5386564,-0.0102938
2026-06-18T10:44:51.397994,+0.07,-0.27,-1.01,51.5386564,-0.0102938
2026-06-18T10:44:51.488586,+0.04,-0.16,-1.02,51.5386564,-0.0102938
2026-06-18T10:44:51.517462,+0.07,-0.21,-0.91,51.5386564,-0.0102938
2026-06-18T10:44:51.581820,+0.13,-0.30,-1.09,51.5386564,-0.0102938
2026-06-18T10:44:51.637325,+0.11,-0.11,-0.97,51.5386564,-0.0102938
2026-06-18T10:44:51.729557,+0.07,-0.23,-0.92,51.5386564,-0.0102938
2026-06-18T10:44:51.789938,+0.12,-0.35,-0.96,51.538683,-0.0103047
2026-06-18T10:44:51.877752,+0.13,-0.16,-0.88,51.538683,-0.0103047
2026-06-18T10:44:51.908143,+0.08,-0.24,-0.99,51.538683,-0.0103047
2026-06-18T10:44:52.000105,+0.06,-0.25,-0.94,51.538683,-0.0103047
2026-06-18T10:44:52.061897,+0.06,-0.05,-1.01,51.538683,-0.0103047
2026-06-18T10:44:52.119436,+0.06,-0.12,-0.88,51.538683,-0.0103047
2026-06-18T10:44:52.180451,+0.15,-0.26,-0.96,51.538683,-0.0103047
2026-06-18T10:44:52.267405,+0.05,-0.15,-0.93,51.538683,-0.0103047
2026-06-18T10:44:52.329025,+0.05,-0.19,-0.91,51.538683,-0.0103047
2026-06-18T10:44:52.387436,+0.11,-0.20,-1.06,51.538683,-0.0103047
2026-06-18T10:44:52.448052,+0.13,-0.26,-1.00,51.538683,-0.0103047
2026-06-18T10:44:52.508500,+0.11,-0.21,-0.92,51.538683,-0.0103047
2026-06-18T10:44:52.598128,+0.12,-0.23,-1.03,51.538683,-0.0103047
2026-06-18T10:44:52.657099,+0.13,-0.35,-0.79,51.538683,-0.0103047
2026-06-18T10:44:52.718055,-0.12,-0.07,-1.25,51.538683,-0.0103047
2026-06-18T10:44:52.776960,+0.06,-0.26,-0.93,51.538683,-0.0103047
2026-06-18T10:44:52.837006,+0.15,-0.39,-0.96,51.5387135,-0.0103184
2026-06-18T10:44:52.928742,+0.06,-0.26,-1.22,51.5387135,-0.0103184
2026-06-18T10:44:52.988373,+0.11,-0.26,-1.04,51.5387135,-0.0103184
2026-06-18T10:44:53.048650,+0.13,-0.18,-0.91,51.5387135,-0.0103184
2026-06-18T10:44:53.108117,+0.07,-0.18,-1.08,51.5387135,-0.0103184
2026-06-18T10:44:53.165562,+0.11,-0.14,-0.89,51.5387135,-0.0103184
2026-06-18T10:44:53.256564,+0.06,-0.16,-1.20,51.5387135,-0.0103184
2026-06-18T10:44:53.320908,+0.02,-0.13,-1.09,51.5387135,-0.0103184
2026-06-18T10:44:53.377682,+0.17,-0.32,-0.74,51.5387135,-0.0103184
2026-06-18T10:44:53.438436,+0.09,-0.18,-1.03,51.5387135,-0.0103184
2026-06-18T10:44:53.498180,+0.17,-0.32,-0.88,51.5387135,-0.0103184
2026-06-18T10:44:53.587707,+0.16,-0.22,-0.79,51.5387135,-0.0103184
2026-06-18T10:44:53.646508,+0.05,-0.03,-0.89,51.5387135,-0.0103184
2026-06-18T10:44:53.705855,+0.13,-0.28,-0.86,51.5387135,-0.0103184
2026-06-18T10:44:53.768194,-0.12,+0.02,-0.89,51.5387135,-0.0103184
2026-06-18T10:44:53.827140,+0.00,-0.17,-1.06,51.5387479,-0.0103377
2026-06-18T10:44:53.917777,+0.18,-0.36,-0.94,51.5387479,-0.0103377
2026-06-18T10:44:53.978127,+0.15,-0.20,-0.89,51.5387479,-0.0103377
2026-06-18T10:44:54.037778,+0.15,-0.18,-0.87,51.5387479,-0.0103377
2026-06-18T10:44:54.097275,-0.01,-0.18,-1.26,51.5387479,-0.0103377
2026-06-18T10:44:54.188012,+0.07,-0.21,-0.88,51.5387479,-0.0103377
2026-06-18T10:44:54.248991,+0.09,-0.21,-0.79,51.5387479,-0.0103377
2026-06-18T10:44:54.306908,+0.14,-0.19,-0.89,51.5387479,-0.0103377
2026-06-18T10:44:54.370016,+0.14,-0.25,-0.88,51.5387479,-0.0103377
2026-06-18T10:44:54.429597,+0.06,-0.07,-1.29,51.5387479,-0.0103377
2026-06-18T10:44:54.518161,+0.09,-0.18,-0.84,51.5387479,-0.0103377
2026-06-18T10:44:54.578044,+0.04,-0.15,-0.95,51.5387479,-0.0103377
2026-06-18T10:44:54.637396,+0.12,-0.28,-1.13,51.5387479,-0.0103377
2026-06-18T10:44:54.698769,+0.05,-0.15,-1.00,51.5387479,-0.0103377
2026-06-18T10:44:54.758673,+0.20,-0.32,-0.96,51.5387479,-0.0103377
2026-06-18T10:44:54.847705,+0.04,-0.14,-0.90,51.5387873,-0.0103601
2026-06-18T10:44:54.906808,+0.04,-0.10,-0.80,51.5387873,-0.0103601
2026-06-18T10:44:54.968666,+0.21,-0.37,-0.92,51.5387873,-0.0103601
2026-06-18T10:44:55.027029,+0.01,-0.09,-0.91,51.5387873,-0.0103601
2026-06-18T10:44:55.088116,+0.12,-0.22,-0.99,51.5387873,-0.0103601
2026-06-18T10:44:55.177552,+0.05,-0.18,-0.98,51.5387873,-0.0103601
2026-06-18T10:44:55.238473,+0.07,-0.16,-0.93,51.5387873,-0.0103601
2026-06-18T10:44:55.297982,+0.15,-0.37,-0.95,51.5387873,-0.0103601
2026-06-18T10:44:55.358109,+0.13,-0.19,-0.76,51.5387873,-0.0103601
2026-06-18T10:44:55.417224,+0.10,-0.22,-0.99,51.5387873,-0.0103601
2026-06-18T10:44:55.508574,-0.12,-0.05,-1.39,51.5387873,-0.0103601
2026-06-18T10:44:55.569730,+0.06,-0.25,-1.00,51.5387873,-0.0103601
2026-06-18T10:44:55.628387,+0.10,-0.24,-0.92,51.5387873,-0.0103601
2026-06-18T10:44:55.688921,-0.06,+0.00,-1.18,51.5387873,-0.0103601
2026-06-18T10:44:55.748519,+0.05,-0.15,-1.05,51.5387873,-0.0103601
2026-06-18T10:44:55.837213,-0.01,-0.09,-1.08,51.5388372,-0.0103859
2026-06-18T10:44:55.900209,+0.10,-0.20,-0.87,51.5388372,-0.0103859
2026-06-18T10:44:55.958175,+0.04,-0.28,-1.23,51.5388372,-0.0103859
2026-06-18T10:44:56.017376,+0.11,-0.21,-0.79,51.5388372,-0.0103859
2026-06-18T10:44:56.077171,+0.08,-0.07,-1.25,51.5388372,-0.0103859
2026-06-18T10:44:56.167853,+0.05,-0.09,-0.88,51.5388372,-0.0103859
2026-06-18T10:44:56.228368,+0.01,-0.13,-1.06,51.5388372,-0.0103859
2026-06-18T10:44:56.288125,+0.08,-0.16,-1.18,51.5388372,-0.0103859
2026-06-18T10:44:56.348614,+0.05,-0.20,-0.76,51.5388372,-0.0103859
2026-06-18T10:44:56.438976,+0.22,-0.34,-0.73,51.5388372,-0.0103859
2026-06-18T10:44:56.498998,+0.01,-0.07,-1.13,51.5388372,-0.0103859
2026-06-18T10:44:56.556157,+0.06,-0.23,-0.92,51.5388372,-0.0103859
2026-06-18T10:44:56.617804,+0.16,-0.31,-0.85,51.5388372,-0.0103859
2026-06-18T10:44:56.676316,+0.12,-0.24,-1.00,51.5388372,-0.0103859
2026-06-18T10:44:56.767521,+0.07,-0.26,-0.90,51.5388372,-0.0103859
2026-06-18T10:44:56.827337,+0.06,-0.21,-1.11,51.5388767,-0.0104116
2026-06-18T10:44:56.886913,+0.12,-0.28,-0.91,51.5388767,-0.0104116
2026-06-18T10:44:56.948977,+0.11,-0.22,-0.85,51.5388767,-0.0104116
2026-06-18T10:44:57.008021,+0.09,-0.08,-0.93,51.5388767,-0.0104116
2026-06-18T10:44:57.099065,+0.01,-0.11,-0.93,51.5388767,-0.0104116
2026-06-18T10:44:57.157387,+0.14,-0.43,-1.11,51.5388767,-0.0104116
2026-06-18T10:44:57.216698,+0.09,-0.27,-0.97,51.5388767,-0.0104116
2026-06-18T10:44:57.277045,+0.05,-0.05,-1.09,51.5388767,-0.0104116
2026-06-18T10:44:57.337233,+0.13,-0.17,-0.96,51.5388767,-0.0104116
2026-06-18T10:44:57.428142,-0.01,-0.07,-1.02,51.5388767,-0.0104116
2026-06-18T10:44:57.488997,+0.10,-0.23,-0.85,51.5388767,-0.0104116
2026-06-18T10:44:57.547846,+0.10,-0.12,-1.02,51.5388767,-0.0104116
2026-06-18T10:44:57.607096,+0.12,-0.27,-1.05,51.5388767,-0.0104116
2026-06-18T10:44:57.669850,-0.10,-0.05,-1.31,51.5388767,-0.0104116
2026-06-18T10:44:57.758934,+0.09,-0.23,-0.91,51.5388767,-0.0104116
2026-06-18T10:44:57.819591,+0.03,-0.12,-0.99,51.5389189,-0.0104413
2026-06-18T10:44:57.878914,+0.17,-0.15,-0.66,51.5389189,-0.0104413
2026-06-18T10:44:57.940004,+0.23,-0.24,-0.93,51.5389189,-0.0104413
2026-06-18T10:44:57.997576,+0.13,-0.30,-1.04,51.5389189,-0.0104413
2026-06-18T10:44:58.087455,-0.04,-0.04,-0.98,51.5389189,-0.0104413
2026-06-18T10:44:58.147601,+0.09,-0.23,-1.09,51.5389189,-0.0104413
2026-06-18T10:44:58.209603,+0.02,-0.05,-1.20,51.5389189,-0.0104413
2026-06-18T10:44:58.268329,+0.05,-0.15,-0.95,51.5389189,-0.0104413
2026-06-18T10:44:58.358224,+0.07,-0.20,-0.87,51.5389189,-0.0104413
2026-06-18T10:44:58.417771,+0.11,-0.20,-1.02,51.5389189,-0.0104413
2026-06-18T10:44:58.478370,+0.05,-0.15,-0.86,51.5389189,-0.0104413
2026-06-18T10:44:58.538211,+0.06,-0.18,-0.95,51.5389189,-0.0104413
2026-06-18T10:44:58.599161,+0.21,-0.35,-0.76,51.5389189,-0.0104413
2026-06-18T10:44:58.687396,+0.08,-0.11,-1.11,51.5389189,-0.0104413
2026-06-18T10:44:58.747977,-0.05,-0.09,-1.18,51.5389189,-0.0104413
2026-06-18T10:44:58.805767,+0.07,-0.20,-1.04,51.5389574,-0.0104728
2026-06-18T10:44:58.867722,+0.15,-0.31,-0.85,51.5389574,-0.0104728
2026-06-18T10:44:58.928840,+0.12,-0.23,-0.85,51.5389574,-0.0104728
2026-06-18T10:44:59.018338,-0.12,+0.02,-0.98,51.5389574,-0.0104728
2026-06-18T10:44:59.078093,-0.05,-0.15,-1.10,51.5389574,-0.0104728
2026-06-18T10:44:59.138259,-0.06,-0.17,-1.22,51.5389574,-0.0104728
2026-06-18T10:44:59.198603,+0.23,-0.07,-1.07,51.5389574,-0.0104728
2026-06-18T10:44:59.258250,-0.11,-0.11,-1.36,51.5389574,-0.0104728
2026-06-18T10:44:59.349891,+0.18,-0.49,-0.78,51.5389574,-0.0104728
2026-06-18T10:44:59.407948,-0.10,+0.00,-0.94,51.5389574,-0.0104728
2026-06-18T10:44:59.467657,+0.10,-0.22,-1.20,51.5389574,-0.0104728
2026-06-18T10:44:59.528700,-0.06,-0.20,-1.54,51.5389574,-0.0104728
2026-06-18T10:44:59.588124,+0.30,-0.51,-0.90,51.5389574,-0.0104728
2026-06-18T10:44:59.678070,+0.18,-0.41,-0.57,51.5389574,-0.0104728
2026-06-18T10:44:59.737918,+0.31,-0.29,-0.62,51.5389574,-0.0104728
2026-06-18T10:44:59.796760,+0.17,-0.31,-0.90,51.5389953,-0.0105016
2026-06-18T10:44:59.857634,-0.11,+0.03,-1.22,51.5389953,-0.0105016
2026-06-18T10:44:59.917915,+0.13,-0.40,-1.27,51.5389953,-0.0105016
2026-06-18T10:45:00.011143,+0.02,+0.06,-0.88,51.5389953,-0.0105016
2026-06-18T10:45:00.067835,+0.20,-0.33,-0.94,51.5389953,-0.0105016
2026-06-18T10:45:00.129116,+0.07,-0.38,-1.10,51.5389953,-0.0105016
2026-06-18T10:45:00.188780,+0.03,-0.13,-1.20,51.5389953,-0.0105016
2026-06-18T10:45:00.278071,+0.00,-0.13,-0.83,51.5389953,-0.0105016
2026-06-18T10:45:00.339697,+0.09,-0.33,-0.90,51.5389953,-0.0105016
2026-06-18T10:45:00.398937,-0.09,-0.12,-1.44,51.5389953,-0.0105016
2026-06-18T10:45:00.458088,-0.03,-0.09,-1.10,51.5389953,-0.0105016
2026-06-18T10:45:00.548673,+0.13,-0.30,-0.86,51.5389953,-0.0105016
2026-06-18T10:45:00.610778,+0.15,-0.24,-0.92,51.5389953,-0.0105016
2026-06-18T10:45:00.669647,+0.03,-0.04,-1.08,51.5389953,-0.0105016
2026-06-18T10:45:00.729370,-0.05,-0.10,-1.06,51.5389953,-0.0105016
2026-06-18T10:45:00.795001,+0.10,-0.08,-0.71,51.5390349,-0.0105312
2026-06-18T10:45:00.875257,-0.11,+0.06,-1.17,51.5390349,-0.0105312
2026-06-18T10:45:00.937886,+0.06,-0.21,-0.93,51.5390349,-0.0105312
2026-06-18T10:45:00.997215,-0.01,-0.18,-1.11,51.5390349,-0.0105312
2026-06-18T10:45:01.058991,+0.16,-0.08,-0.28,51.5390349,-0.0105312
2026-06-18T10:45:01.118502,+0.12,+0.08,-0.74,51.5390349,-0.0105312
2026-06-18T10:45:01.206882,+0.11,-0.25,-1.13,51.5390349,-0.0105312
2026-06-18T10:45:01.269317,-0.00,-0.06,-0.77,51.5390349,-0.0105312
2026-06-18T10:45:01.329373,-0.13,+0.31,-0.58,51.5390349,-0.0105312
2026-06-18T10:45:01.389174,+0.39,-0.35,-0.64,51.5390349,-0.0105312
2026-06-18T10:45:01.449834,+0.04,-0.08,-1.14,51.5390349,-0.0105312
2026-06-18T10:45:01.569146,+0.06,-0.00,-0.82,51.5390349,-0.0105312
2026-06-18T10:45:01.596101,+0.07,+0.01,-0.87,51.5390349,-0.0105312
2026-06-18T10:45:01.657618,+0.31,-0.35,-0.67,51.5390349,-0.0105312
2026-06-18T10:45:01.717454,-0.07,-0.04,-1.04,51.5390349,-0.0105312
2026-06-18T10:45:01.775835,+0.18,-0.27,-0.79,51.5390349,-0.0105312
2026-06-18T10:45:01.866970,+0.06,-0.23,-0.96,51.5390759,-0.0105652
2026-06-18T10:45:01.930661,+0.03,-0.12,-0.98,51.5390759,-0.0105652
2026-06-18T10:45:01.986935,+0.08,-0.22,-0.97,51.5390759,-0.0105652
2026-06-18T10:45:02.048618,+0.07,-0.19,-0.77,51.5390759,-0.0105652
2026-06-18T10:45:02.107852,-0.07,+0.07,-1.29,51.5390759,-0.0105652
2026-06-18T10:45:02.197858,+0.06,-0.12,-1.01,51.5390759,-0.0105652
2026-06-18T10:45:02.257891,+0.05,-0.09,-1.00,51.5390759,-0.0105652
2026-06-18T10:45:02.317268,+0.04,-0.12,-0.96,51.5390759,-0.0105652
2026-06-18T10:45:02.378185,+0.08,-0.28,-1.18,51.5390759,-0.0105652
2026-06-18T10:45:02.467817,+0.03,-0.16,-0.59,51.5390759,-0.0105652
2026-06-18T10:45:02.528428,+0.03,-0.09,-1.02,51.5390759,-0.0105652
2026-06-18T10:45:02.588785,+0.05,-0.22,-1.00,51.5390759,-0.0105652
2026-06-18T10:45:02.647432,+0.17,-0.24,-0.75,51.5390759,-0.0105652
2026-06-18T10:45:02.707202,+0.11,-0.15,-0.77,51.5390759,-0.0105652
2026-06-18T10:45:02.796647,+0.13,-0.23,-0.85,51.5391184,-0.0105946
2026-06-18T10:45:02.859743,+0.05,-0.18,-0.98,51.5391184,-0.0105946
2026-06-18T10:45:02.918022,+0.04,-0.18,-1.07,51.5391184,-0.0105946
2026-06-18T10:45:02.977055,+0.22,-0.37,-0.89,51.5391184,-0.0105946
2026-06-18T10:45:03.040675,+0.11,-0.18,-0.92,51.5391184,-0.0105946
2026-06-18T10:45:03.130755,+0.04,-0.14,-1.03,51.5391184,-0.0105946
2026-06-18T10:45:03.187634,-0.02,-0.17,-1.22,51.5391184,-0.0105946
2026-06-18T10:45:03.248304,+0.10,-0.19,-0.93,51.5391184,-0.0105946
2026-06-18T10:45:03.308419,+0.12,-0.23,-0.82,51.5391184,-0.0105946
2026-06-18T10:45:03.368313,+0.14,-0.26,-0.98,51.5391184,-0.0105946
2026-06-18T10:45:03.458048,+0.04,-0.06,-0.77,51.5391184,-0.0105946
2026-06-18T10:45:03.517633,+0.23,-0.34,-0.81,51.5391184,-0.0105946
2026-06-18T10:45:03.590534,-0.17,-0.01,-1.29,51.5391184,-0.0105946
2026-06-18T10:45:03.636595,+0.10,-0.12,-1.27,51.5391184,-0.0105946
2026-06-18T10:45:03.700419,+0.03,-0.05,-0.97,51.5391184,-0.0105946
2026-06-18T10:45:03.787097,+0.17,-0.33,-0.71,51.5391184,-0.0105946
2026-06-18T10:45:03.847345,-0.18,+0.19,-1.15,51.5391603,-0.010623
2026-06-18T10:45:03.908943,+0.33,-0.31,-1.25,51.5391603,-0.010623
2026-06-18T10:45:03.967812,-0.03,-0.13,-1.05,51.5391603,-0.010623
2026-06-18T10:45:04.029627,+0.18,-0.27,-0.78,51.5391603,-0.010623
2026-06-18T10:45:04.118954,-0.04,+0.03,-0.98,51.5391603,-0.010623
2026-06-18T10:45:04.178828,+0.18,-0.32,-1.32,51.5391603,-0.010623
2026-06-18T10:45:04.237791,-0.02,-0.11,-1.01,51.5391603,-0.010623
2026-06-18T10:45:04.300001,+0.14,-0.14,-0.80,51.5391603,-0.010623
2026-06-18T10:45:04.390146,+0.05,-0.30,-1.33,51.5391603,-0.010623
2026-06-18T10:45:04.448049,+0.06,-0.39,-1.37,51.5391603,-0.010623
2026-06-18T10:45:04.510171,+0.07,-0.20,-0.88,51.5391603,-0.010623
2026-06-18T10:45:04.568737,+0.32,-0.45,-0.54,51.5391603,-0.010623
2026-06-18T10:45:04.658165,+0.21,-0.40,-0.81,51.5391603,-0.010623
2026-06-18T10:45:04.749046,+0.06,-0.18,-1.03,51.5391603,-0.010623
2026-06-18T10:45:04.806733,+0.10,-0.24,-1.17,51.5391993,-0.0106467
2026-06-18T10:45:04.837153,+0.07,-0.04,-0.78,51.5391993,-0.0106467
2026-06-18T10:45:04.898833,+0.19,-0.41,-0.90,51.5391993,-0.0106467
2026-06-18T10:45:04.988362,+0.09,-0.18,-1.03,51.5391993,-0.0106467
2026-06-18T10:45:05.048664,-0.02,-0.01,-1.00,51.5391993,-0.0106467
2026-06-18T10:45:05.108686,+0.07,-0.22,-0.86,51.5391993,-0.0106467
2026-06-18T10:45:05.169057,+0.06,-0.17,-1.11,51.5391993,-0.0106467
2026-06-18T10:45:05.230812,+0.03,-0.14,-1.11,51.5391993,-0.0106467
2026-06-18T10:45:05.317380,-0.15,-0.02,-1.45,51.5391993,-0.0106467
2026-06-18T10:45:05.378420,-0.06,-0.05,-1.17,51.5391993,-0.0106467
2026-06-18T10:45:05.437404,+0.10,-0.37,-1.21,51.5391993,-0.0106467
2026-06-18T10:45:05.499433,-0.05,-0.24,-1.15,51.5391993,-0.0106467
2026-06-18T10:45:05.559832,-0.00,-0.10,-1.11,51.5391993,-0.0106467
2026-06-18T10:45:05.647389,+0.08,-0.32,-1.15,51.5391993,-0.0106467
2026-06-18T10:45:05.707537,+0.32,-0.50,-0.89,51.5391993,-0.0106467
2026-06-18T10:45:05.767263,-0.02,-0.11,-1.09,51.5391993,-0.0106467
2026-06-18T10:45:05.827528,-0.04,-0.07,-1.06,51.5392445,-0.0106707
2026-06-18T10:45:05.890152,+0.11,-0.20,-0.87,51.5392445,-0.0106707
2026-06-18T10:45:05.980643,+0.12,-0.26,-1.01,51.5392445,-0.0106707
2026-06-18T10:45:06.038989,-0.01,-0.10,-1.02,51.5392445,-0.0106707
2026-06-18T10:45:06.100157,+0.27,-0.28,-0.58,51.5392445,-0.0106707
2026-06-18T10:45:06.159204,+0.25,-0.49,-0.85,51.5392445,-0.0106707
2026-06-18T10:45:06.217272,+0.05,-0.10,-1.04,51.5392445,-0.0106707
2026-06-18T10:45:06.308722,-0.04,+0.03,-0.99,51.5392445,-0.0106707
2026-06-18T10:45:06.367382,+0.01,-0.10,-1.02,51.5392445,-0.0106707
2026-06-18T10:45:06.428329,+0.10,-0.23,-1.02,51.5392445,-0.0106707
2026-06-18T10:45:06.489247,+0.01,-0.10,-1.02,51.5392445,-0.0106707
2026-06-18T10:45:06.578022,+0.20,-0.33,-0.88,51.5392445,-0.0106707
2026-06-18T10:45:06.642117,+0.06,-0.25,-1.13,51.5392445,-0.0106707
2026-06-18T10:45:06.697721,+0.13,-0.29,-0.73,51.5392445,-0.0106707
2026-06-18T10:45:06.763280,-0.02,-0.07,-0.96,51.5392445,-0.0106707
2026-06-18T10:45:06.816288,+0.11,-0.20,-1.23,51.539284,-0.0107011
2026-06-18T10:45:06.911776,+0.04,-0.18,-1.04,51.539284,-0.0107011
2026-06-18T10:45:06.972360,+0.05,-0.13,-0.73,51.539284,-0.0107011
2026-06-18T10:45:07.031099,+0.32,-0.55,-0.89,51.539284,-0.0107011
2026-06-18T10:45:07.088439,-0.03,-0.02,-1.12,51.539284,-0.0107011
2026-06-18T10:45:07.149008,-0.16,+0.04,-1.13,51.539284,-0.0107011
2026-06-18T10:45:07.237530,+0.15,-0.30,-0.96,51.539284,-0.0107011
2026-06-18T10:45:07.298414,-0.01,-0.11,-1.25,51.539284,-0.0107011
2026-06-18T10:45:07.359507,-0.01,-0.28,-1.53,51.539284,-0.0107011
2026-06-18T10:45:07.420793,-0.06,+0.01,-1.10,51.539284,-0.0107011
2026-06-18T10:45:07.478410,+0.08,-0.20,-1.16,51.539284,-0.0107011
2026-06-18T10:45:07.569815,+0.29,-0.63,-1.08,51.539284,-0.0107011
2026-06-18T10:45:07.629159,+0.10,-0.18,-0.61,51.539284,-0.0107011
2026-06-18T10:45:07.690878,+0.22,-0.27,-0.52,51.539284,-0.0107011
2026-06-18T10:45:07.750770,+0.11,-0.10,-1.11,51.539284,-0.0107011
2026-06-18T10:45:07.811752,+0.16,-0.19,-0.81,51.5393289,-0.0107294
2026-06-18T10:45:07.900997,-0.02,+0.03,-1.04,51.5393289,-0.0107294
2026-06-18T10:45:07.958903,+0.12,-0.19,-1.01,51.5393289,-0.0107294
2026-06-18T10:45:08.021070,-0.04,-0.02,-1.23,51.5393289,-0.0107294
2026-06-18T10:45:08.076465,+0.04,-0.17,-0.90,51.5393289,-0.0107294
2026-06-18T10:45:08.138787,+0.21,-0.32,-0.78,51.5393289,-0.0107294
2026-06-18T10:45:08.226944,+0.19,-0.36,-1.22,51.5393289,-0.0107294
2026-06-18T10:45:08.293740,-0.21,+0.14,-1.32,51.5393289,-0.0107294
2026-06-18T10:45:08.350459,+0.03,-0.17,-0.98,51.5393289,-0.0107294
2026-06-18T10:45:08.408178,+0.32,-0.35,-0.63,51.5393289,-0.0107294
2026-06-18T10:45:08.497775,+0.22,-0.35,-1.02,51.5393289,-0.0107294
2026-06-18T10:45:08.557140,-0.26,+0.20,-0.99,51.5393289,-0.0107294
2026-06-18T10:45:08.618075,-0.16,+0.10,-1.26,51.5393289,-0.0107294
2026-06-18T10:45:08.677868,+0.06,-0.33,-0.89,51.5393289,-0.0107294
2026-06-18T10:45:08.767541,+0.09,-0.01,-0.97,51.5393289,-0.0107294
2026-06-18T10:45:08.828805,+0.15,-0.21,-0.74,51.5393708,-0.010765
2026-06-18T10:45:08.889577,+0.05,-0.19,-1.22,51.5393708,-0.010765
2026-06-18T10:45:08.948425,+0.03,-0.35,-1.01,51.5393708,-0.010765
2026-06-18T10:45:09.011031,+0.05,-0.12,-0.83,51.5393708,-0.010765
2026-06-18T10:45:09.067620,+0.07,-0.14,-1.09,51.5393708,-0.010765
2026-06-18T10:45:09.162989,+0.04,-0.16,-1.28,51.5393708,-0.010765
2026-06-18T10:45:09.218487,+0.21,-0.33,-1.01,51.5393708,-0.010765
2026-06-18T10:45:09.278810,-0.01,-0.09,-1.03,51.5393708,-0.010765
2026-06-18T10:45:09.340120,-0.04,-0.07,-0.83,51.5393708,-0.010765
2026-06-18T10:45:09.427104,-0.08,-0.03,-1.15,51.5393708,-0.010765
2026-06-18T10:45:09.487946,+0.13,-0.29,-0.87,51.5393708,-0.010765
2026-06-18T10:45:09.551994,+0.03,-0.09,-0.85,51.5393708,-0.010765
2026-06-18T10:45:09.610475,+0.11,-0.24,-0.86,51.5393708,-0.010765
2026-06-18T10:45:09.671509,+0.14,-0.22,-0.90,51.5393708,-0.010765
2026-06-18T10:45:09.728873,+0.05,-0.14,-0.96,51.5393708,-0.010765
2026-06-18T10:45:09.817952,+0.03,-0.06,-1.09,51.5394136,-0.0107931
2026-06-18T10:45:09.878451,+0.21,-0.35,-0.97,51.5394136,-0.0107931
2026-06-18T10:45:09.937500,+0.14,-0.25,-0.78,51.5394136,-0.0107931
2026-06-18T10:45:10.000031,+0.15,-0.20,-0.84,51.5394136,-0.0107931
2026-06-18T10:45:10.059564,+0.14,-0.20,-1.07,51.5394136,-0.0107931
2026-06-18T10:45:10.150787,-0.10,-0.03,-1.25,51.5394136,-0.0107931
2026-06-18T10:45:10.207532,+0.03,-0.10,-0.97,51.5394136,-0.0107931
2026-06-18T10:45:10.269870,+0.10,-0.19,-1.00,51.5394136,-0.0107931
2026-06-18T10:45:10.328383,+0.01,-0.08,-1.10,51.5394136,-0.0107931
2026-06-18T10:45:10.392318,+0.09,-0.15,-0.87,51.5394136,-0.0107931
2026-06-18T10:45:10.479413,+0.10,-0.32,-0.82,51.5394136,-0.0107931
2026-06-18T10:45:10.542109,+0.16,-0.22,-0.94,51.5394136,-0.0107931
2026-06-18T10:45:10.597837,-0.13,+0.09,-1.09,51.5394136,-0.0107931
2026-06-18T10:45:10.689068,-0.00,-0.11,-0.98,51.5394136,-0.0107931
2026-06-18T10:45:10.747954,+0.15,-0.41,-0.79,51.5394136,-0.0107931
2026-06-18T10:45:10.806681,+0.12,-0.28,-0.90,51.5394541,-0.0108236
2026-06-18T10:45:10.869003,-0.03,+0.09,-1.27,51.5394541,-0.0108236
2026-06-18T10:45:10.928316,+0.06,-0.24,-1.41,51.5394541,-0.0108236
2026-06-18T10:45:11.020300,+0.05,-0.12,-0.70,51.5394541,-0.0108236
2026-06-18T10:45:11.078160,+0.06,-0.27,-1.22,51.5394541,-0.0108236
2026-06-18T10:45:11.136848,-0.09,+0.09,-1.42,51.5394541,-0.0108236
2026-06-18T10:45:11.196247,+0.07,-0.21,-0.45,51.5394541,-0.0108236
2026-06-18T10:45:11.266754,+0.10,-0.42,-1.23,51.5394541,-0.0108236
2026-06-18T10:45:11.347023,-0.04,-0.11,-1.45,51.5394541,-0.0108236
2026-06-18T10:45:11.409138,+0.72,-0.73,+0.37,51.5394541,-0.0108236
2026-06-18T10:45:11.469820,+0.10,-0.13,-0.43,51.5394541,-0.0108236
2026-06-18T10:45:11.528034,+0.04,+0.24,-0.65,51.5394541,-0.0108236
2026-06-18T10:45:11.588882,+0.08,-0.23,-0.98,51.5394541,-0.0108236
2026-06-18T10:45:11.679597,-0.04,+0.11,-0.40,51.5394541,-0.0108236
2026-06-18T10:45:11.755331,+0.09,-0.28,-1.00,51.5394541,-0.0108236
2026-06-18T10:45:11.803223,+0.10,-0.13,-0.92,51.5394541,-0.0108236
2026-06-18T10:45:11.855720,+0.10,-0.24,-0.92,51.5394861,-0.0108588
2026-06-18T10:45:11.917561,+0.01,-0.23,-1.00,51.5394861,-0.0108588
2026-06-18T10:45:12.006196,+0.14,-0.19,-0.93,51.5394861,-0.0108588
2026-06-18T10:45:12.067543,+0.03,-0.27,-1.30,51.5394861,-0.0108588
2026-06-18T10:45:12.128190,+0.01,-0.19,-0.91,51.5394861,-0.0108588
2026-06-18T10:45:12.188533,+0.02,-0.07,-0.72,51.5394861,-0.0108588
2026-06-18T10:45:12.249240,+0.07,-0.24,-1.07,51.5394861,-0.0108588
2026-06-18T10:45:12.337159,-0.02,-0.16,-1.30,51.5394861,-0.0108588
2026-06-18T10:45:12.398674,-0.09,-0.08,-1.14,51.5394861,-0.0108588
2026-06-18T10:45:12.460185,+0.16,-0.30,-0.97,51.5394861,-0.0108588
2026-06-18T10:45:12.521043,+0.10,-0.20,-0.96,51.5394861,-0.0108588
2026-06-18T10:45:12.607651,+0.06,-0.15,-1.04,51.5394861,-0.0108588
2026-06-18T10:45:12.667014,+0.17,-0.26,-1.16,51.5394861,-0.0108588
2026-06-18T10:45:12.730198,+0.09,-0.19,-1.00,51.5394861,-0.0108588
2026-06-18T10:45:12.787171,+0.08,-0.30,-1.04,51.5395186,-0.0108865
2026-06-18T10:45:12.846541,+0.10,-0.39,-1.12,51.5395186,-0.0108865
2026-06-18T10:45:12.942603,-0.02,-0.10,-1.36,51.5395186,-0.0108865
2026-06-18T10:45:12.997620,+0.06,-0.24,-1.01,51.5395186,-0.0108865
2026-06-18T10:45:13.059439,+0.05,-0.08,-1.04,51.5395186,-0.0108865
2026-06-18T10:45:13.117863,+0.22,-0.31,-0.90,51.5395186,-0.0108865
2026-06-18T10:45:13.178567,+0.13,-0.23,-0.78,51.5395186,-0.0108865
2026-06-18T10:45:13.268996,+0.05,-0.14,-1.04,51.5395186,-0.0108865
2026-06-18T10:45:13.330008,+0.02,-0.07,-1.03,51.5395186,-0.0108865
2026-06-18T10:45:13.388486,+0.03,-0.06,-0.86,51.5395186,-0.0108865
2026-06-18T10:45:13.447190,+0.15,-0.28,-1.06,51.5395186,-0.0108865
2026-06-18T10:45:13.507564,+0.06,-0.24,-0.97,51.5395186,-0.0108865
2026-06-18T10:45:13.660411,+0.09,-0.27,-0.94,51.5395186,-0.0108865
2026-06-18T10:45:13.661095,+0.22,-0.40,-1.05,51.5395186,-0.0108865
2026-06-18T10:45:13.723384,+0.02,-0.01,-0.84,51.5395186,-0.0108865
2026-06-18T10:45:13.776569,+0.18,-0.34,-0.51,51.5395186,-0.0108865
2026-06-18T10:45:13.869782,-0.02,+0.03,-0.95,51.5395536,-0.0109193
2026-06-18T10:45:13.928282,+0.03,-0.20,-1.37,51.5395536,-0.0109193
2026-06-18T10:45:13.987006,+0.07,-0.17,-0.76,51.5395536,-0.0109193
2026-06-18T10:45:14.078330,+0.22,-0.24,-0.59,51.5395536,-0.0109193
2026-06-18T10:45:14.107049,+0.07,-0.27,-1.21,51.5395536,-0.0109193
2026-06-18T10:45:14.168112,+0.05,-0.29,-0.85,51.5395536,-0.0109193
2026-06-18T10:45:14.258166,+0.05,-0.06,-0.97,51.5395536,-0.0109193
2026-06-18T10:45:14.316923,+0.15,-0.18,-0.70,51.5395536,-0.0109193
2026-06-18T10:45:14.382625,+0.11,-0.16,-0.81,51.5395536,-0.0109193
2026-06-18T10:45:14.442231,+0.23,-0.31,-0.98,51.5395536,-0.0109193
2026-06-18T10:45:14.500210,+0.15,-0.32,-1.08,51.5395536,-0.0109193
2026-06-18T10:45:14.588046,+0.09,-0.19,-1.12,51.5395536,-0.0109193
2026-06-18T10:45:14.646904,+0.13,-0.30,-1.02,51.5395536,-0.0109193
2026-06-18T10:45:14.709425,-0.06,-0.23,-0.90,51.5395536,-0.0109193
2026-06-18T10:45:14.771600,-0.09,-0.14,-1.14,51.5395536,-0.0109193
2026-06-18T10:45:14.859100,+0.04,-0.14,-1.01,51.5395838,-0.0109545
2026-06-18T10:45:14.917769,-0.03,-0.10,-1.07,51.5395838,-0.0109545
2026-06-18T10:45:14.979475,+0.17,-0.30,-0.91,51.5395838,-0.0109545
2026-06-18T10:45:15.043729,+0.13,-0.24,-0.84,51.5395838,-0.0109545
2026-06-18T10:45:15.098050,+0.10,-0.21,-1.12,51.5395838,-0.0109545
2026-06-18T10:45:15.188883,+0.08,-0.23,-0.94,51.5395838,-0.0109545
2026-06-18T10:45:15.249421,-0.01,+0.04,-0.86,51.5395838,-0.0109545
2026-06-18T10:45:15.307508,+0.03,-0.23,-1.04,51.5395838,-0.0109545
2026-06-18T10:45:15.367687,+0.13,-0.42,-1.11,51.5395838,-0.0109545
2026-06-18T10:45:15.427629,+0.05,-0.23,-1.08,51.5395838,-0.0109545
2026-06-18T10:45:15.518536,-0.00,-0.25,-0.98,51.5395838,-0.0109545
2026-06-18T10:45:15.577330,+0.17,-0.31,-0.60,51.5395838,-0.0109545
2026-06-18T10:45:15.641697,+0.02,-0.08,-0.89,51.5395838,-0.0109545
2026-06-18T10:45:15.698690,-0.11,-0.18,-1.14,51.5395838,-0.0109545
2026-06-18T10:45:15.760595,+0.30,-0.34,-0.89,51.5395838,-0.0109545
2026-06-18T10:45:15.848055,-0.20,+0.19,-1.60,51.5396166,-0.0109907
2026-06-18T10:45:15.908662,-0.02,-0.16,-1.18,51.5396166,-0.0109907
2026-06-18T10:45:15.968717,+0.25,-0.12,+0.07,51.5396166,-0.0109907
2026-06-18T10:45:16.030461,+0.14,-0.33,-1.28,51.5396166,-0.0109907
2026-06-18T10:45:16.088323,-0.04,-0.11,-1.04,51.5396166,-0.0109907
2026-06-18T10:45:16.180737,-0.44,+0.80,-1.82,51.5396166,-0.0109907
2026-06-18T10:45:16.238465,+0.19,-0.34,-1.35,51.5396166,-0.0109907
2026-06-18T10:45:16.302377,+0.05,-0.17,-1.43,51.5396166,-0.0109907
2026-06-18T10:45:16.358772,+0.05,-0.27,-1.24,51.5396166,-0.0109907
2026-06-18T10:45:16.419519,+0.09,-0.31,-1.07,51.5396166,-0.0109907
2026-06-18T10:45:16.507225,+0.10,-0.35,-1.17,51.5396166,-0.0109907
2026-06-18T10:45:16.570647,+0.12,-0.27,-0.73,51.5396166,-0.0109907
2026-06-18T10:45:16.627218,-0.01,-0.05,-0.76,51.5396166,-0.0109907
2026-06-18T10:45:16.718592,+0.01,-0.18,-1.24,51.5396166,-0.0109907
2026-06-18T10:45:16.777980,+0.04,-0.24,-1.36,51.5396166,-0.0109907
2026-06-18T10:45:16.837831,+0.29,-0.46,-0.82,51.5396454,-0.011024
2026-06-18T10:45:16.897240,+0.16,-0.18,-0.82,51.5396454,-0.011024
2026-06-18T10:45:16.958623,+0.12,-0.13,-0.70,51.5396454,-0.011024
2026-06-18T10:45:17.049340,+0.09,-0.11,-0.87,51.5396454,-0.011024
2026-06-18T10:45:17.109689,+0.08,-0.04,-0.82,51.5396454,-0.011024
2026-06-18T10:45:17.167920,+0.04,+0.03,-0.84,51.5396454,-0.011024
2026-06-18T10:45:17.229695,+0.29,-0.35,-0.94,51.5396454,-0.011024
2026-06-18T10:45:17.289341,-0.10,+0.04,-1.37,51.5396454,-0.011024
2026-06-18T10:45:17.381267,+0.17,-0.40,-1.36,51.5396454,-0.011024
2026-06-18T10:45:17.440960,+0.23,-0.50,-0.84,51.5396454,-0.011024
2026-06-18T10:45:17.500462,+0.06,-0.11,-0.94,51.5396454,-0.011024
2026-06-18T10:45:17.560473,+0.11,-0.29,-0.97,51.5396454,-0.011024
2026-06-18T10:45:17.618166,-0.17,+0.17,-1.12,51.5396454,-0.011024
2026-06-18T10:45:17.708982,+0.23,-0.35,-0.93,51.5396454,-0.011024
2026-06-18T10:45:17.768107,+0.14,-0.22,-1.11,51.5396454,-0.011024
2026-06-18T10:45:17.827268,+0.14,-0.26,-1.09,51.5396766,-0.0110608
2026-06-18T10:45:17.888743,+0.10,-0.23,-1.03,51.5396766,-0.0110608
2026-06-18T10:45:17.947679,+0.10,-0.34,-1.03,51.5396766,-0.0110608
2026-06-18T10:45:18.043258,-0.02,-0.15,-0.94,51.5396766,-0.0110608
2026-06-18T10:45:18.101294,+0.09,-0.19,-1.03,51.5396766,-0.0110608
2026-06-18T10:45:18.163799,+0.04,-0.23,-0.97,51.5396766,-0.0110608
2026-06-18T10:45:18.219096,+0.06,-0.20,-0.86,51.5396766,-0.0110608
2026-06-18T10:45:18.281394,+0.08,-0.26,-1.02,51.5396766,-0.0110608
2026-06-18T10:45:18.368506,-0.02,-0.06,-1.20,51.5396766,-0.0110608
2026-06-18T10:45:18.430356,+0.20,-0.35,-1.12,51.5396766,-0.0110608
2026-06-18T10:45:18.489055,+0.12,-0.21,-1.06,51.5396766,-0.0110608
2026-06-18T10:45:18.550214,-0.03,+0.03,-0.86,51.5396766,-0.0110608
2026-06-18T10:45:18.610776,+0.04,-0.08,-0.80,51.5396766,-0.0110608
2026-06-18T10:45:18.701894,+0.16,-0.22,-1.03,51.5396766,-0.0110608
2026-06-18T10:45:18.760529,+0.08,-0.11,-1.07,51.5396766,-0.0110608
2026-06-18T10:45:18.817994,+0.10,-0.22,-1.12,51.5397102,-0.0110949
2026-06-18T10:45:18.882680,+0.02,-0.18,-0.97,51.5397102,-0.0110949
2026-06-18T10:45:18.969378,+0.21,-0.25,-0.87,51.5397102,-0.0110949
2026-06-18T10:45:19.028494,+0.09,-0.22,-0.98,51.5397102,-0.0110949
2026-06-18T10:45:19.090097,+0.10,-0.37,-0.82,51.5397102,-0.0110949
2026-06-18T10:45:19.151566,+0.06,-0.18,-0.96,51.5397102,-0.0110949
2026-06-18T10:45:19.211520,+0.07,-0.26,-1.08,51.5397102,-0.0110949
2026-06-18T10:45:19.299159,+0.21,-0.40,-0.94,51.5397102,-0.0110949
2026-06-18T10:45:19.362222,+0.10,-0.17,-1.17,51.5397102,-0.0110949
2026-06-18T10:45:19.420749,+0.01,-0.10,-0.87,51.5397102,-0.0110949
2026-06-18T10:45:19.478476,+0.08,-0.15,-1.10,51.5397102,-0.0110949
2026-06-18T10:45:19.540582,+0.25,-0.32,-1.01,51.5397102,-0.0110949
2026-06-18T10:45:19.629695,+0.26,-0.33,-0.56,51.5397102,-0.0110949
2026-06-18T10:45:19.690471,+0.03,-0.09,-1.24,51.5397102,-0.0110949
2026-06-18T10:45:19.751709,+0.07,-0.16,-0.90,51.5397102,-0.0110949
2026-06-18T10:45:19.806628,+0.21,-0.35,-1.01,51.5397415,-0.0111312
2026-06-18T10:45:19.868759,+0.24,-0.20,-0.78,51.5397415,-0.0111312
2026-06-18T10:45:19.960740,+0.01,-0.07,-1.12,51.5397415,-0.0111312
2026-06-18T10:45:20.020063,+0.10,-0.30,-0.90,51.5397415,-0.0111312
2026-06-18T10:45:20.078534,+0.08,-0.30,-0.93,51.5397415,-0.0111312
2026-06-18T10:45:20.139646,+0.04,-0.24,-1.14,51.5397415,-0.0111312
2026-06-18T10:45:20.198290,+0.10,-0.20,-0.94,51.5397415,-0.0111312
2026-06-18T10:45:20.286901,+0.12,-0.15,-0.89,51.5397415,-0.0111312
2026-06-18T10:45:20.360064,+0.06,-0.19,-0.89,51.5397415,-0.0111312
2026-06-18T10:45:20.410641,+0.14,-0.17,-0.94,51.5397415,-0.0111312
2026-06-18T10:45:20.469794,+0.13,-0.23,-0.94,51.5397415,-0.0111312
2026-06-18T10:45:20.528329,+0.13,-0.19,-0.96,51.5397415,-0.0111312
2026-06-18T10:45:20.619996,+0.17,-0.27,-0.91,51.5397415,-0.0111312
2026-06-18T10:45:20.680742,+0.13,-0.34,-1.15,51.5397415,-0.0111312
2026-06-18T10:45:20.738599,+0.03,-0.16,-1.05,51.5397415,-0.0111312
2026-06-18T10:45:20.796828,+0.06,-0.11,-0.93,51.5397729,-0.011169
2026-06-18T10:45:20.891192,+0.07,-0.23,-0.89,51.5397729,-0.011169
2026-06-18T10:45:20.947724,+0.07,-0.23,-0.96,51.5397729,-0.011169
2026-06-18T10:45:21.009928,-0.06,-0.20,-1.12,51.5397729,-0.011169
2026-06-18T10:45:21.068257,+0.14,-0.18,-0.90,51.5397729,-0.011169
2026-06-18T10:45:21.127374,+0.19,-0.24,-0.77,51.5397729,-0.011169
2026-06-18T10:45:21.223122,-0.06,-0.03,-0.97,51.5397729,-0.011169
2026-06-18T10:45:21.277760,-0.01,-0.02,-0.96,51.5397729,-0.011169
2026-06-18T10:45:21.338063,+0.13,-0.18,-1.19,51.5397729,-0.011169
2026-06-18T10:45:21.402868,+0.07,-0.24,-0.94,51.5397729,-0.011169
2026-06-18T10:45:21.462270,+0.09,-0.13,-0.80,51.5397729,-0.011169
2026-06-18T10:45:21.549581,+0.05,-0.16,-1.13,51.5397729,-0.011169
2026-06-18T10:45:21.607750,+0.02,-0.17,-0.93,51.5397729,-0.011169
2026-06-18T10:45:21.671781,+0.10,-0.19,-1.00,51.5397729,-0.011169
2026-06-18T10:45:21.728768,+0.09,-0.31,-0.94,51.5397729,-0.011169
2026-06-18T10:45:21.797545,+0.14,-0.30,-0.86,51.5398109,-0.0112046
2026-06-18T10:45:21.883611,+0.04,-0.18,-1.19,51.5398109,-0.0112046
2026-06-18T10:45:21.946223,+0.03,-0.21,-1.03,51.5398109,-0.0112046
2026-06-18T10:45:21.999782,+0.11,-0.22,-0.79,51.5398109,-0.0112046
2026-06-18T10:45:22.057341,+0.17,-0.34,-0.78,51.5398109,-0.0112046
2026-06-18T10:45:22.117744,-0.03,-0.03,-0.88,51.5398109,-0.0112046
2026-06-18T10:45:22.208767,+0.07,-0.10,-1.03,51.5398109,-0.0112046
2026-06-18T10:45:22.267490,+0.17,-0.26,-1.06,51.5398109,-0.0112046
2026-06-18T10:45:22.327860,+0.08,-0.19,-0.95,51.5398109,-0.0112046
2026-06-18T10:45:22.387672,+0.09,-0.16,-0.95,51.5398109,-0.0112046
2026-06-18T10:45:22.449792,+0.18,-0.33,-0.69,51.5398109,-0.0112046
2026-06-18T10:45:22.539203,+0.02,-0.12,-1.07,51.5398109,-0.0112046
2026-06-18T10:45:22.601861,-0.02,-0.05,-1.19,51.5398109,-0.0112046
2026-06-18T10:45:22.659364,+0.01,-0.19,-1.04,51.5398109,-0.0112046
2026-06-18T10:45:22.719147,+0.15,-0.32,-1.09,51.5398109,-0.0112046
2026-06-18T10:45:22.806300,+0.02,-0.17,-1.00,51.5398466,-0.011235
2026-06-18T10:45:22.870584,+0.08,-0.23,-0.94,51.5398466,-0.011235
2026-06-18T10:45:22.932186,+0.07,-0.23,-1.04,51.5398466,-0.011235
2026-06-18T10:45:22.989633,-0.02,-0.10,-1.01,51.5398466,-0.011235
2026-06-18T10:45:23.080240,+0.09,-0.23,-0.94,51.5398466,-0.011235
2026-06-18T10:45:23.138172,+0.14,-0.16,-0.82,51.5398466,-0.011235
2026-06-18T10:45:23.199147,+0.22,-0.24,-0.91,51.5398466,-0.011235
2026-06-18T10:45:23.261347,+0.10,-0.12,-1.08,51.5398466,-0.011235
2026-06-18T10:45:23.318302,+0.23,-0.37,-0.85,51.5398466,-0.011235
2026-06-18T10:45:23.411242,+0.17,-0.38,-0.91,51.5398466,-0.011235
2026-06-18T10:45:23.467183,+0.04,-0.13,-1.06,51.5398466,-0.011235
2026-06-18T10:45:23.528016,-0.06,+0.03,-1.01,51.5398466,-0.011235
2026-06-18T10:45:23.592314,+0.15,-0.26,-0.83,51.5398466,-0.011235
2026-06-18T10:45:23.649274,+0.17,-0.20,-0.95,51.5398466,-0.011235
2026-06-18T10:45:23.737410,+0.14,-0.30,-0.87,51.5398466,-0.011235
2026-06-18T10:45:23.798465,+0.04,-0.19,-1.10,51.5398788,-0.0112646
2026-06-18T10:45:23.858879,+0.17,-0.29,-0.98,51.5398788,-0.0112646
2026-06-18T10:45:23.920074,-0.05,-0.04,-0.85,51.5398788,-0.0112646
2026-06-18T10:45:23.980936,+0.02,-0.19,-1.09,51.5398788,-0.0112646
2026-06-18T10:45:24.067717,+0.05,-0.12,-0.87,51.5398788,-0.0112646
2026-06-18T10:45:24.129468,+0.18,-0.16,-0.97,51.5398788,-0.0112646
2026-06-18T10:45:24.188655,+0.16,-0.28,-0.94,51.5398788,-0.0112646
2026-06-18T10:45:24.250968,+0.07,-0.19,-0.92,51.5398788,-0.0112646
2026-06-18T10:45:24.307233,+0.11,-0.22,-0.94,51.5398788,-0.0112646
2026-06-18T10:45:24.402131,+0.04,+0.02,-0.96,51.5398788,-0.0112646
2026-06-18T10:45:24.459532,+0.12,-0.24,-0.90,51.5398788,-0.0112646
2026-06-18T10:45:24.518023,+0.11,-0.24,-0.91,51.5398788,-0.0112646
2026-06-18T10:45:24.581849,+0.11,-0.18,-1.06,51.5398788,-0.0112646
2026-06-18T10:45:24.640060,+0.07,-0.26,-0.84,51.5398788,-0.0112646
2026-06-18T10:45:24.731563,+0.12,-0.27,-0.97,51.5398788,-0.0112646
2026-06-18T10:45:24.787186,+0.01,-0.19,-1.03,51.5399191,-0.0112929
2026-06-18T10:45:24.847139,+0.05,-0.24,-0.91,51.5399191,-0.0112929
2026-06-18T10:45:24.907812,+0.07,-0.15,-0.96,51.5399191,-0.0112929
2026-06-18T10:45:24.999237,+0.09,-0.19,-0.89,51.5399191,-0.0112929
2026-06-18T10:45:25.058508,+0.14,-0.26,-1.02,51.5399191,-0.0112929
2026-06-18T10:45:25.120677,+0.10,-0.30,-0.76,51.5399191,-0.0112929
2026-06-18T10:45:25.177083,+0.12,-0.29,-0.86,51.5399191,-0.0112929
2026-06-18T10:45:25.239675,+0.05,-0.23,-1.01,51.5399191,-0.0112929
2026-06-18T10:45:25.327448,+0.14,-0.11,-0.92,51.5399191,-0.0112929
2026-06-18T10:45:25.387738,+0.07,-0.17,-1.05,51.5399191,-0.0112929
2026-06-18T10:45:25.446914,+0.16,-0.26,-0.90,51.5399191,-0.0112929
2026-06-18T10:45:25.508964,+0.18,-0.33,-0.82,51.5399191,-0.0112929
2026-06-18T10:45:25.568651,+0.10,-0.14,-1.03,51.5399191,-0.0112929
2026-06-18T10:45:25.662069,+0.19,-0.20,-1.00,51.5399191,-0.0112929
2026-06-18T10:45:25.717474,+0.01,-0.15,-0.97,51.5399191,-0.0112929
2026-06-18T10:45:25.780867,-0.03,-0.04,-1.17,51.5399566,-0.0113231
2026-06-18T10:45:25.839510,+0.18,-0.29,-0.87,51.5399566,-0.0113231
2026-06-18T10:45:25.902474,+0.22,-0.36,-0.89,51.5399566,-0.0113231
2026-06-18T10:45:25.987677,+0.05,-0.08,-1.01,51.5399566,-0.0113231
2026-06-18T10:45:26.049673,+0.12,-0.25,-0.89,51.5399566,-0.0113231
2026-06-18T10:45:26.107611,+0.17,-0.34,-0.42,51.5399566,-0.0113231
2026-06-18T10:45:26.168739,+0.19,-0.23,-0.92,51.5399566,-0.0113231
2026-06-18T10:45:26.229466,+0.07,-0.13,-1.19,51.5399566,-0.0113231
2026-06-18T10:45:26.317590,+0.04,-0.16,-1.07,51.5399566,-0.0113231
2026-06-18T10:45:26.379157,+0.16,-0.37,-1.12,51.5399566,-0.0113231
2026-06-18T10:45:26.439490,-0.00,-0.10,-1.26,51.5399566,-0.0113231
2026-06-18T10:45:26.499096,+0.05,-0.22,-0.99,51.5399566,-0.0113231
2026-06-18T10:45:26.587855,+0.08,-0.08,-0.95,51.5399566,-0.0113231
2026-06-18T10:45:26.650732,+0.14,-0.17,-0.87,51.5399566,-0.0113231
2026-06-18T10:45:26.706984,+0.02,-0.17,-1.05,51.5399566,-0.0113231
2026-06-18T10:45:26.768032,+0.07,-0.27,-0.91,51.5399566,-0.0113231
2026-06-18T10:45:26.826980,+0.11,-0.21,-1.05,51.5399885,-0.0113549
2026-06-18T10:45:26.921038,+0.10,-0.23,-0.93,51.5399885,-0.0113549
2026-06-18T10:45:26.978498,+0.01,-0.22,-1.07,51.5399885,-0.0113549
2026-06-18T10:45:27.039448,+0.11,-0.11,-0.90,51.5399885,-0.0113549
2026-06-18T10:45:27.107767,-0.14,+0.06,-1.13,51.5399885,-0.0113549
2026-06-18T10:45:27.158585,+0.17,-0.22,-0.88,51.5399885,-0.0113549
2026-06-18T10:45:27.246998,+0.10,-0.22,-1.12,51.5399885,-0.0113549
2026-06-18T10:45:27.306893,+0.15,-0.17,-0.90,51.5399885,-0.0113549
2026-06-18T10:45:27.369764,+0.06,-0.13,-1.03,51.5399885,-0.0113549
2026-06-18T10:45:27.428803,+0.24,-0.39,-0.75,51.5399885,-0.0113549
2026-06-18T10:45:27.487626,+0.06,-0.17,-1.17,51.5399885,-0.0113549
2026-06-18T10:45:27.578062,+0.04,-0.30,-1.08,51.5399885,-0.0113549
2026-06-18T10:45:27.641549,-0.02,-0.11,-0.95,51.5399885,-0.0113549
2026-06-18T10:45:27.698906,+0.13,-0.30,-1.15,51.5399885,-0.0113549
2026-06-18T10:45:27.758853,+0.04,-0.20,-1.22,51.5399885,-0.0113549
2026-06-18T10:45:27.817598,+0.11,-0.22,-0.92,51.5400279,-0.0113823
2026-06-18T10:45:27.909534,+0.08,-0.17,-0.89,51.5400279,-0.0113823
2026-06-18T10:45:27.967748,+0.03,-0.22,-0.87,51.5400279,-0.0113823
2026-06-18T10:45:28.029246,+0.09,-0.17,-0.93,51.5400279,-0.0113823
2026-06-18T10:45:28.090793,+0.10,-0.14,-1.02,51.5400279,-0.0113823
2026-06-18T10:45:28.148652,+0.02,-0.08,-0.99,51.5400279,-0.0113823
2026-06-18T10:45:28.240370,+0.15,-0.23,-1.07,51.5400279,-0.0113823
2026-06-18T10:45:28.303671,+0.10,-0.26,-0.84,51.5400279,-0.0113823
2026-06-18T10:45:28.357215,+0.08,-0.23,-0.90,51.5400279,-0.0113823
2026-06-18T10:45:28.417824,+0.11,-0.18,-0.91,51.5400279,-0.0113823
2026-06-18T10:45:28.478195,+0.08,-0.26,-1.03,51.5400279,-0.0113823
2026-06-18T10:45:28.569022,+0.02,-0.18,-1.03,51.5400279,-0.0113823
2026-06-18T10:45:28.627785,+0.17,-0.27,-0.96,51.5400279,-0.0113823
2026-06-18T10:45:28.691945,+0.07,-0.18,-1.00,51.5400279,-0.0113823
2026-06-18T10:45:28.747728,+0.01,-0.08,-1.16,51.5400279,-0.0113823
2026-06-18T10:45:28.806874,+0.18,-0.34,-0.86,51.5400729,-0.0114053
2026-06-18T10:45:28.898890,+0.04,-0.21,-0.93,51.5400729,-0.0114053
2026-06-18T10:45:28.959815,-0.03,-0.07,-1.07,51.5400729,-0.0114053
2026-06-18T10:45:29.019305,+0.10,-0.13,-1.10,51.5400729,-0.0114053
2026-06-18T10:45:29.107133,+0.10,-0.20,-0.99,51.5400729,-0.0114053
2026-06-18T10:45:29.170261,+0.07,-0.24,-1.12,51.5400729,-0.0114053
2026-06-18T10:45:29.227263,+0.03,-0.15,-0.91,51.5400729,-0.0114053
2026-06-18T10:45:29.293694,+0.10,-0.19,-1.04,51.5400729,-0.0114053
2026-06-18T10:45:29.351707,+0.17,-0.28,-0.79,51.5400729,-0.0114053
2026-06-18T10:45:29.441130,+0.05,-0.14,-0.79,51.5400729,-0.0114053
2026-06-18T10:45:29.497864,+0.09,-0.16,-0.97,51.5400729,-0.0114053
2026-06-18T10:45:29.558498,+0.02,-0.05,-1.10,51.5400729,-0.0114053
2026-06-18T10:45:29.617354,+0.09,-0.27,-0.94,51.5400729,-0.0114053
2026-06-18T10:45:29.679105,+0.19,-0.30,-0.94,51.5400729,-0.0114053
2026-06-18T10:45:29.770040,+0.11,-0.19,-1.01,51.5400729,-0.0114053
2026-06-18T10:45:29.828351,+0.04,-0.16,-0.88,51.5401131,-0.0114349
2026-06-18T10:45:29.888213,+0.18,-0.35,-1.00,51.5401131,-0.0114349
2026-06-18T10:45:29.952728,+0.11,-0.13,-0.95,51.5401131,-0.0114349
2026-06-18T10:45:30.008634,+0.11,-0.23,-0.95,51.5401131,-0.0114349
2026-06-18T10:45:30.098627,+0.10,-0.20,-1.00,51.5401131,-0.0114349
2026-06-18T10:45:30.158443,+0.04,-0.19,-0.91,51.5401131,-0.0114349
2026-06-18T10:45:30.218827,+0.13,-0.22,-1.00,51.5401131,-0.0114349
2026-06-18T10:45:30.277289,+0.05,-0.06,-0.99,51.5401131,-0.0114349
2026-06-18T10:45:30.339020,+0.10,-0.27,-1.03,51.5401131,-0.0114349
2026-06-18T10:45:30.457604,+0.10,-0.30,-0.93,51.5401131,-0.0114349
2026-06-18T10:45:30.487043,-0.02,-0.04,-1.06,51.5401131,-0.0114349
2026-06-18T10:45:30.548282,+0.05,-0.13,-1.30,51.5401131,-0.0114349
2026-06-18T10:45:30.609767,+0.01,-0.15,-0.86,51.5401131,-0.0114349
2026-06-18T10:45:30.669702,+0.23,-0.33,-0.72,51.5401131,-0.0114349
2026-06-18T10:45:30.765197,+0.00,-0.09,-1.12,51.5401131,-0.0114349
2026-06-18T10:45:30.817993,+0.04,-0.18,-0.95,51.5401505,-0.0114727
2026-06-18T10:45:30.882173,+0.19,-0.29,-0.98,51.5401505,-0.0114727
2026-06-18T10:45:30.942277,-0.03,-0.22,-0.99,51.5401505,-0.0114727
2026-06-18T10:45:30.999445,+0.02,-0.13,-0.96,51.5401505,-0.0114727
2026-06-18T10:45:31.088605,+0.06,-0.24,-0.95,51.5401505,-0.0114727
2026-06-18T10:45:31.150625,+0.08,-0.17,-1.09,51.5401505,-0.0114727
2026-06-18T10:45:31.211122,+0.12,-0.18,-1.04,51.5401505,-0.0114727
2026-06-18T10:45:31.268166,+0.10,-0.29,-1.01,51.5401505,-0.0114727
2026-06-18T10:45:31.362920,-0.02,-0.06,-0.84,51.5401505,-0.0114727
2026-06-18T10:45:31.417532,+0.16,-0.20,-1.01,51.5401505,-0.0114727
2026-06-18T10:45:31.481257,+0.08,-0.24,-0.86,51.5401505,-0.0114727
2026-06-18T10:45:31.540219,+0.12,-0.12,-1.00,51.5401505,-0.0114727
2026-06-18T10:45:31.602627,+0.13,-0.31,-0.94,51.5401505,-0.0114727
2026-06-18T10:45:31.688942,+0.04,-0.24,-1.08,51.5401505,-0.0114727
2026-06-18T10:45:31.748872,+0.11,-0.13,-0.82,51.5401505,-0.0114727
2026-06-18T10:45:31.813315,+0.15,-0.20,-1.00,51.5401877,-0.0115119
2026-06-18T10:45:31.866581,+0.06,-0.22,-1.13,51.5401877,-0.0115119
2026-06-18T10:45:31.927271,+0.10,-0.27,-0.94,51.5401877,-0.0115119
2026-06-18T10:45:32.019833,+0.12,-0.27,-0.98,51.5401877,-0.0115119
2026-06-18T10:45:32.080851,+0.06,-0.12,-0.96,51.5401877,-0.0115119
2026-06-18T10:45:32.142911,+0.09,-0.13,-1.03,51.5401877,-0.0115119
2026-06-18T10:45:32.200497,-0.08,-0.10,-1.15,51.5401877,-0.0115119
2026-06-18T10:45:32.260993,-0.01,-0.16,-1.02,51.5401877,-0.0115119
2026-06-18T10:45:32.377002,+0.18,-0.28,-0.79,51.5401877,-0.0115119
2026-06-18T10:45:32.407366,+0.03,-0.15,-1.17,51.5401877,-0.0115119
2026-06-18T10:45:32.469524,+0.01,-0.09,-1.04,51.5401877,-0.0115119
2026-06-18T10:45:32.527469,+0.17,-0.31,-1.00,51.5401877,-0.0115119
2026-06-18T10:45:32.589988,+0.10,-0.21,-0.95,51.5401877,-0.0115119
2026-06-18T10:45:32.678523,+0.04,-0.06,-0.69,51.5401877,-0.0115119
2026-06-18T10:45:32.741582,+0.10,-0.06,-1.16,51.5401877,-0.0115119
2026-06-18T10:45:32.800082,+0.12,-0.26,-0.85,51.5402138,-0.0115508
2026-06-18T10:45:32.891345,+0.09,-0.21,-1.18,51.5402138,-0.0115508
2026-06-18T10:45:32.918569,-0.00,-0.15,-0.96,51.5402138,-0.0115508
2026-06-18T10:45:33.039346,+0.02,-0.18,-0.93,51.5402138,-0.0115508
2026-06-18T10:45:33.067321,+0.08,-0.22,-1.02,51.5402138,-0.0115508
2026-06-18T10:45:33.130084,-0.08,-0.15,-1.16,51.5402138,-0.0115508
2026-06-18T10:45:33.186954,-0.02,-0.16,-0.82,51.5402138,-0.0115508
2026-06-18T10:45:33.280497,+0.06,-0.11,-0.86,51.5402138,-0.0115508
2026-06-18T10:45:33.341125,+0.10,-0.17,-1.02,51.5402138,-0.0115508
2026-06-18T10:45:33.398569,+0.04,-0.27,-0.95,51.5402138,-0.0115508
2026-06-18T10:45:33.460408,+0.13,-0.22,-0.97,51.5402138,-0.0115508
2026-06-18T10:45:33.520733,+0.17,-0.33,-0.83,51.5402138,-0.0115508
2026-06-18T10:45:33.611093,+0.01,-0.08,-0.94,51.5402138,-0.0115508
2026-06-18T10:45:33.668702,+0.09,-0.16,-1.07,51.5402138,-0.0115508
2026-06-18T10:45:33.728303,+0.03,-0.05,-1.21,51.5402138,-0.0115508
2026-06-18T10:45:33.791066,+0.21,-0.40,-0.73,51.5402354,-0.0115881
2026-06-18T10:45:33.848321,+0.07,-0.32,-1.03,51.5402354,-0.0115881
2026-06-18T10:45:33.939225,+0.13,-0.21,-0.92,51.5402354,-0.0115881
2026-06-18T10:45:33.997209,+0.08,-0.20,-0.73,51.5402354,-0.0115881
2026-06-18T10:45:34.059373,-0.17,+0.04,-1.20,51.5402354,-0.0115881
2026-06-18T10:45:34.122145,-0.00,-0.06,-0.98,51.5402354,-0.0115881
2026-06-18T10:45:34.177907,+0.22,-0.36,-0.96,51.5402354,-0.0115881
2026-06-18T10:45:34.272690,+0.17,-0.16,-0.79,51.5402354,-0.0115881
2026-06-18T10:45:34.329733,+0.14,-0.17,-0.91,51.5402354,-0.0115881
2026-06-18T10:45:34.388918,+0.04,-0.19,-1.21,51.5402354,-0.0115881
2026-06-18T10:45:34.448841,+0.03,-0.28,-0.96,51.5402354,-0.0115881
2026-06-18T10:45:34.509054,+0.11,-0.19,-1.17,51.5402354,-0.0115881
2026-06-18T10:45:34.600273,-0.01,-0.04,-1.13,51.5402354,-0.0115881
2026-06-18T10:45:34.659989,+0.04,-0.17,-1.07,51.5402354,-0.0115881
2026-06-18T10:45:34.722405,+0.07,-0.12,-1.31,51.5402354,-0.0115881
2026-06-18T10:45:34.777834,+0.02,-0.06,-1.15,51.5402354,-0.0115881
2026-06-18T10:45:34.838933,-0.01,+0.03,-1.15,51.5402688,-0.0116298
2026-06-18T10:45:34.928675,+0.28,-0.62,-0.87,51.5402688,-0.0116298
2026-06-18T10:45:34.992919,+0.08,-0.36,-0.96,51.5402688,-0.0116298
2026-06-18T10:45:35.052273,-0.06,-0.02,-0.91,51.5402688,-0.0116298
2026-06-18T10:45:35.109621,+0.08,-0.17,-1.05,51.5402688,-0.0116298
2026-06-18T10:45:35.202182,+0.10,-0.34,-1.28,51.5402688,-0.0116298
2026-06-18T10:45:35.257474,-0.05,-0.08,-1.25,51.5402688,-0.0116298
2026-06-18T10:45:35.322196,+0.26,-0.42,-0.71,51.5402688,-0.0116298
2026-06-18T10:45:35.377915,+0.14,-0.28,-0.87,51.5402688,-0.0116298
2026-06-18T10:45:35.468145,-0.15,+0.24,-1.11,51.5402688,-0.0116298
2026-06-18T10:45:35.530524,+0.16,-0.30,-0.94,51.5402688,-0.0116298
2026-06-18T10:45:35.590399,+0.10,-0.23,-0.81,51.5402688,-0.0116298
2026-06-18T10:45:35.649140,+0.12,-0.26,-0.73,51.5402688,-0.0116298
2026-06-18T10:45:35.714257,+0.20,-0.37,-0.84,51.5402688,-0.0116298
2026-06-18T10:45:35.814257,+0.15,-0.21,-0.92,51.5403051,-0.0116707
2026-06-18T10:45:35.858604,-0.01,-0.12,-1.13,51.5403051,-0.0116707
2026-06-18T10:45:35.917965,+0.10,-0.31,-0.86,51.5403051,-0.0116707
2026-06-18T10:45:35.978936,+0.07,-0.22,-1.03,51.5403051,-0.0116707
2026-06-18T10:45:36.037466,+0.15,-0.30,-1.28,51.5403051,-0.0116707
2026-06-18T10:45:36.127405,-0.06,+0.09,-1.46,51.5403051,-0.0116707
2026-06-18T10:45:36.186674,+0.27,-0.40,-0.56,51.5403051,-0.0116707
2026-06-18T10:45:36.252003,-0.03,-0.18,-1.20,51.5403051,-0.0116707
2026-06-18T10:45:36.306585,+0.30,-0.32,-0.06,51.5403051,-0.0116707
2026-06-18T10:45:36.367957,+0.18,-0.15,-0.58,51.5403051,-0.0116707
2026-06-18T10:45:36.464986,+0.05,-0.20,-1.12,51.5403051,-0.0116707
2026-06-18T10:45:36.521961,+0.11,-0.30,-1.01,51.5403051,-0.0116707
2026-06-18T10:45:36.578756,+0.19,-0.39,-0.75,51.5403051,-0.0116707
2026-06-18T10:45:36.642923,+0.10,-0.32,-0.91,51.5403051,-0.0116707
2026-06-18T10:45:36.729523,+0.15,-0.21,-0.89,51.5403051,-0.0116707
2026-06-18T10:45:36.786925,+0.07,-0.20,-0.89,51.5403051,-0.0116707
2026-06-18T10:45:36.848734,+0.05,-0.17,-1.03,51.5403356,-0.0117137
2026-06-18T10:45:36.908444,-0.02,-0.17,-1.14,51.5403356,-0.0117137
2026-06-18T10:45:36.972617,+0.09,-0.23,-0.70,51.5403356,-0.0117137
2026-06-18T10:45:37.027786,+0.07,-0.19,-0.97,51.5403356,-0.0117137
2026-06-18T10:45:37.122400,+0.05,-0.21,-0.99,51.5403356,-0.0117137
2026-06-18T10:45:37.182207,+0.17,-0.30,-0.96,51.5403356,-0.0117137
2026-06-18T10:45:37.237898,+0.25,-0.43,-1.00,51.5403356,-0.0117137
2026-06-18T10:45:37.304959,+0.02,-0.14,-1.01,51.5403356,-0.0117137
2026-06-18T10:45:37.389005,+0.12,-0.09,-0.85,51.5403356,-0.0117137
2026-06-18T10:45:37.452458,+0.14,-0.08,-0.86,51.5403356,-0.0117137
2026-06-18T10:45:37.509963,+0.06,-0.20,-0.78,51.5403356,-0.0117137
2026-06-18T10:45:37.572611,+0.11,-0.27,-0.75,51.5403356,-0.0117137
2026-06-18T10:45:37.631182,+0.08,-0.22,-0.91,51.5403356,-0.0117137
2026-06-18T10:45:37.723044,+0.02,-0.24,-1.26,51.5403356,-0.0117137
2026-06-18T10:45:37.777304,+0.17,-0.34,-0.68,51.5403356,-0.0117137
2026-06-18T10:45:37.837979,-0.04,-0.13,-0.93,51.5403598,-0.0117493
2026-06-18T10:45:37.904178,+0.12,-0.06,-1.06,51.5403598,-0.0117493
2026-06-18T10:45:37.961532,+0.02,-0.21,-1.05,51.5403598,-0.0117493
2026-06-18T10:45:38.048431,+0.21,-0.20,-0.65,51.5403598,-0.0117493
2026-06-18T10:45:38.107496,-0.08,-0.08,-1.22,51.5403598,-0.0117493
2026-06-18T10:45:38.171029,+0.10,-0.21,-1.17,51.5403598,-0.0117493
2026-06-18T10:45:38.232577,+0.08,-0.34,-0.88,51.5403598,-0.0117493
2026-06-18T10:45:38.292464,+0.11,-0.14,-0.84,51.5403598,-0.0117493
2026-06-18T10:45:38.381502,+0.09,-0.03,-1.06,51.5403598,-0.0117493
2026-06-18T10:45:38.437415,-0.06,-0.08,-1.19,51.5403598,-0.0117493
2026-06-18T10:45:38.502171,+0.14,-0.00,-1.02,51.5403598,-0.0117493
2026-06-18T10:45:38.558268,+0.27,-0.25,-0.86,51.5403598,-0.0117493
2026-06-18T10:45:38.621470,+0.20,-0.32,-0.95,51.5403598,-0.0117493
2026-06-18T10:45:38.708654,-0.05,-0.07,-0.83,51.5403598,-0.0117493
2026-06-18T10:45:38.770974,-0.01,-0.12,-0.98,51.5403598,-0.0117493
2026-06-18T10:45:38.827498,+0.11,-0.17,-1.19,51.5403904,-0.0117804
2026-06-18T10:45:38.888703,+0.14,-0.29,-0.77,51.5403904,-0.0117804
2026-06-18T10:45:38.951082,+0.23,-0.38,-1.06,51.5403904,-0.0117804
2026-06-18T10:45:39.037803,+0.06,-0.15,-1.08,51.5403904,-0.0117804
2026-06-18T10:45:39.102742,-0.40,+0.32,-1.69,51.5403904,-0.0117804
2026-06-18T10:45:39.162012,+0.18,-0.55,-1.09,51.5403904,-0.0117804
2026-06-18T10:45:39.221696,+0.01,+0.02,-0.91,51.5403904,-0.0117804
2026-06-18T10:45:39.310302,-0.13,-0.05,-1.28,51.5403904,-0.0117804
2026-06-18T10:45:39.367158,-0.06,+0.00,-1.34,51.5403904,-0.0117804
2026-06-18T10:45:39.431304,+0.27,-0.46,-0.93,51.5403904,-0.0117804
2026-06-18T10:45:39.491786,+0.19,-0.35,-0.85,51.5403904,-0.0117804
2026-06-18T10:45:39.552472,+0.06,-0.25,-0.88,51.5403904,-0.0117804
2026-06-18T10:45:39.640025,+0.10,+0.00,-0.72,51.5403904,-0.0117804
2026-06-18T10:45:39.702834,+0.02,-0.24,-0.85,51.5403904,-0.0117804
2026-06-18T10:45:39.759674,+0.16,-0.14,-0.71,51.5403904,-0.0117804
2026-06-18T10:45:39.817193,+0.05,-0.29,-0.88,51.540418,-0.0118065
2026-06-18T10:45:39.881420,+0.21,-0.37,-1.05,51.540418,-0.0118065
2026-06-18T10:45:39.970309,+0.10,-0.13,-0.96,51.540418,-0.0118065
2026-06-18T10:45:40.029868,+0.03,-0.04,-0.94,51.540418,-0.0118065
2026-06-18T10:45:40.091370,+0.07,-0.28,-1.13,51.540418,-0.0118065
2026-06-18T10:45:40.148636,+0.06,-0.09,-0.74,51.540418,-0.0118065
2026-06-18T10:45:40.211340,-0.05,-0.04,-1.49,51.540418,-0.0118065
2026-06-18T10:45:40.300771,+0.08,-0.27,-0.99,51.540418,-0.0118065
2026-06-18T10:45:40.358126,+0.09,-0.13,-1.05,51.540418,-0.0118065
2026-06-18T10:45:40.421786,+0.15,-0.42,-0.90,51.540418,-0.0118065
2026-06-18T10:45:40.480541,+0.05,-0.15,-0.98,51.540418,-0.0118065
2026-06-18T10:45:40.540872,+0.10,-0.23,-0.95,51.540418,-0.0118065
2026-06-18T10:45:40.630130,+0.08,-0.12,-0.93,51.540418,-0.0118065
2026-06-18T10:45:40.690590,-0.01,-0.09,-1.03,51.540418,-0.0118065
2026-06-18T10:45:40.749573,+0.02,-0.17,-1.07,51.540418,-0.0118065
2026-06-18T10:45:40.807685,+0.19,-0.35,-0.89,51.5404442,-0.0118285
2026-06-18T10:45:40.871652,+0.15,-0.22,-0.83,51.5404442,-0.0118285
2026-06-18T10:45:40.961444,+0.09,-0.29,-0.94,51.5404442,-0.0118285
2026-06-18T10:45:41.019946,+0.07,-0.09,-1.13,51.5404442,-0.0118285
2026-06-18T10:45:41.078914,+0.04,-0.20,-0.79,51.5404442,-0.0118285
2026-06-18T10:45:41.140747,+0.15,-0.32,-0.79,51.5404442,-0.0118285
2026-06-18T10:45:41.203521,+0.13,-0.06,-1.00,51.5404442,-0.0118285
2026-06-18T10:45:41.289404,+0.01,-0.19,-1.08,51.5404442,-0.0118285
2026-06-18T10:45:41.351286,+0.15,-0.37,-1.02,51.5404442,-0.0118285
2026-06-18T10:45:41.411432,+0.14,-0.28,-0.81,51.5404442,-0.0118285
2026-06-18T10:45:41.468490,+0.03,-0.23,-0.90,51.5404442,-0.0118285
2026-06-18T10:45:41.561749,+0.13,-0.26,-0.84,51.5404442,-0.0118285
2026-06-18T10:45:41.619712,+0.01,-0.14,-0.94,51.5404442,-0.0118285
2026-06-18T10:45:41.680007,+0.05,-0.16,-0.90,51.5404442,-0.0118285
2026-06-18T10:45:41.740989,+0.11,-0.16,-1.02,51.5404442,-0.0118285
2026-06-18T10:45:41.801902,+0.10,-0.24,-1.03,51.5404771,-0.0118618
2026-06-18T10:45:41.890960,+0.09,-0.16,-0.92,51.5404771,-0.0118618
2026-06-18T10:45:41.947944,+0.11,-0.15,-1.01,51.5404771,-0.0118618
2026-06-18T10:45:42.011850,+0.08,-0.21,-1.01,51.5404771,-0.0118618
2026-06-18T10:45:42.071445,+0.09,-0.28,-1.05,51.5404771,-0.0118618
2026-06-18T10:45:42.128582,+0.16,-0.27,-0.90,51.5404771,-0.0118618
2026-06-18T10:45:42.220323,+0.09,-0.16,-1.06,51.5404771,-0.0118618
2026-06-18T10:45:42.280521,+0.13,-0.35,-1.02,51.5404771,-0.0118618
2026-06-18T10:45:42.341269,-0.01,-0.14,-1.04,51.5404771,-0.0118618
2026-06-18T10:45:42.400895,-0.03,-0.10,-1.02,51.5404771,-0.0118618
2026-06-18T10:45:42.459663,+0.18,-0.36,-0.80,51.5404771,-0.0118618
2026-06-18T10:45:42.548969,+0.13,-0.26,-0.92,51.5404771,-0.0118618
2026-06-18T10:45:42.607605,-0.04,-0.02,-0.96,51.5404771,-0.0118618
2026-06-18T10:45:42.670916,+0.14,-0.35,-1.00,51.5404771,-0.0118618
2026-06-18T10:45:42.728441,+0.15,-0.24,-1.00,51.5404771,-0.0118618
2026-06-18T10:45:42.788301,-0.08,-0.09,-1.33,51.5404771,-0.0118618
2026-06-18T10:45:42.880313,+0.05,-0.14,-1.10,51.5405063,-0.0118956
2026-06-18T10:45:42.938653,+0.23,-0.29,-0.88,51.5405063,-0.0118956
2026-06-18T10:45:42.999605,+0.07,-0.15,-0.84,51.5405063,-0.0118956
2026-06-18T10:45:43.058817,+0.01,-0.22,-1.01,51.5405063,-0.0118956
2026-06-18T10:45:43.119972,+0.05,-0.16,-1.18,51.5405063,-0.0118956
2026-06-18T10:45:43.213534,+0.10,-0.20,-0.89,51.5405063,-0.0118956
2026-06-18T10:45:43.266670,+0.12,-0.26,-0.96,51.5405063,-0.0118956
2026-06-18T10:45:43.328777,+0.07,-0.21,-0.88,51.5405063,-0.0118956
2026-06-18T10:45:43.420232,+0.24,-0.42,-0.85,51.5405063,-0.0118956
2026-06-18T10:45:43.482776,+0.03,-0.15,-1.01,51.5405063,-0.0118956
2026-06-18T10:45:43.541967,+0.08,-0.15,-1.00,51.5405063,-0.0118956
2026-06-18T10:45:43.600798,+0.01,-0.11,-1.17,51.5405063,-0.0118956
2026-06-18T10:45:43.688794,+0.09,-0.33,-0.92,51.5405063,-0.0118956
2026-06-18T10:45:43.748655,+0.13,-0.26,-1.05,51.5405063,-0.0118956
2026-06-18T10:45:43.806783,+0.13,-0.10,-1.18,51.5405275,-0.011929
2026-06-18T10:45:43.868368,+0.14,-0.33,-0.96,51.5405275,-0.011929
2026-06-18T10:45:43.927547,+0.06,-0.08,-0.83,51.5405275,-0.011929
2026-06-18T10:45:43.988907,+0.23,-0.44,-1.24,51.5405275,-0.011929
2026-06-18T10:45:44.081253,+0.18,-0.23,-0.85,51.5405275,-0.011929
2026-06-18T10:45:44.137880,+0.10,-0.22,-1.03,51.5405275,-0.011929
2026-06-18T10:45:44.198900,+0.23,-0.43,-0.94,51.5405275,-0.011929
2026-06-18T10:45:44.260390,-0.06,-0.04,-0.90,51.5405275,-0.011929
2026-06-18T10:45:44.321836,+0.17,-0.34,-0.92,51.5405275,-0.011929
2026-06-18T10:45:44.410261,+0.02,-0.21,-1.28,51.5405275,-0.011929
2026-06-18T10:45:44.470674,+0.07,-0.23,-0.81,51.5405275,-0.011929
2026-06-18T10:45:44.527974,+0.09,-0.23,-0.90,51.5405275,-0.011929
2026-06-18T10:45:44.589926,-0.09,+0.01,-1.03,51.5405275,-0.011929
2026-06-18T10:45:44.648872,+0.14,-0.26,-0.86,51.5405275,-0.011929
2026-06-18T10:45:44.743252,+0.21,-0.36,-0.72,51.5405275,-0.011929
2026-06-18T10:45:44.796987,+0.37,-0.48,-0.66,51.5405275,-0.011929
2026-06-18T10:45:44.859701,+0.12,-0.23,-1.01,51.5405459,-0.0119593
2026-06-18T10:45:44.916906,-0.05,-0.09,-0.89,51.5405459,-0.0119593
2026-06-18T10:45:44.981735,-0.04,+0.04,-1.28,51.5405459,-0.0119593
2026-06-18T10:45:45.069196,+0.01,-0.08,-1.32,51.5405459,-0.0119593
2026-06-18T10:45:45.129912,+0.11,-0.26,-0.85,51.5405459,-0.0119593
2026-06-18T10:45:45.188753,+0.13,-0.19,-0.74,51.5405459,-0.0119593
2026-06-18T10:45:45.251441,+0.16,-0.31,-0.94,51.5405459,-0.0119593
2026-06-18T10:45:45.310905,-0.00,-0.14,-1.24,51.5405459,-0.0119593
2026-06-18T10:45:45.402991,-0.02,-0.06,-1.00,51.5405459,-0.0119593
2026-06-18T10:45:45.459041,+0.06,-0.19,-1.09,51.5405459,-0.0119593
2026-06-18T10:45:45.518804,-0.02,-0.15,-1.14,51.5405459,-0.0119593
2026-06-18T10:45:45.577663,+0.10,-0.18,-1.07,51.5405459,-0.0119593
2026-06-18T10:45:45.670350,+0.06,-0.19,-1.16,51.5405459,-0.0119593
2026-06-18T10:45:45.730001,+0.27,-0.37,-0.79,51.5405459,-0.0119593
2026-06-18T10:45:45.786828,-0.01,-0.01,-1.15,51.5405459,-0.0119593
2026-06-18T10:45:45.851534,+0.03,-0.21,-1.09,51.5405704,-0.0119785
2026-06-18T10:45:45.909283,+0.07,-0.29,-0.95,51.5405704,-0.0119785
2026-06-18T10:45:46.000612,-0.11,+0.14,-1.46,51.5405704,-0.0119785
2026-06-18T10:45:46.057069,+0.18,-0.22,-0.96,51.5405704,-0.0119785
2026-06-18T10:45:46.121923,+0.08,-0.26,-0.83,51.5405704,-0.0119785
2026-06-18T10:45:46.179157,+0.08,-0.22,-1.05,51.5405704,-0.0119785
2026-06-18T10:45:46.238889,+0.08,-0.34,-0.97,51.5405704,-0.0119785
2026-06-18T10:45:46.329570,+0.11,-0.25,-1.24,51.5405704,-0.0119785
2026-06-18T10:45:46.390641,-0.04,-0.12,-0.94,51.5405704,-0.0119785
2026-06-18T10:45:46.453281,-0.03,-0.00,-1.16,51.5405704,-0.0119785
2026-06-18T10:45:46.509175,+0.08,-0.23,-1.08,51.5405704,-0.0119785
2026-06-18T10:45:46.599466,-0.09,-0.06,-1.07,51.5405704,-0.0119785
2026-06-18T10:45:46.658607,+0.16,-0.23,-0.98,51.5405704,-0.0119785
2026-06-18T10:45:46.716402,+0.12,-0.28,-0.99,51.5405704,-0.0119785
2026-06-18T10:45:46.784862,+0.17,-0.15,-0.98,51.5405958,-0.0119696
2026-06-18T10:45:46.838716,+0.09,-0.23,-0.90,51.5405958,-0.0119696
2026-06-18T10:45:46.902327,+0.09,-0.18,-0.92,51.5405958,-0.0119696
2026-06-18T10:45:46.988724,+0.13,-0.17,-1.12,51.5405958,-0.0119696
2026-06-18T10:45:47.048669,+0.17,-0.30,-0.76,51.5405958,-0.0119696
2026-06-18T10:45:47.110260,+0.25,-0.24,-0.94,51.5405958,-0.0119696
2026-06-18T10:45:47.168298,+0.03,-0.21,-1.01,51.5405958,-0.0119696
2026-06-18T10:45:47.226753,+0.05,-0.22,-0.96,51.5405958,-0.0119696
2026-06-18T10:45:47.321474,+0.21,-0.43,-0.98,51.5405958,-0.0119696
2026-06-18T10:45:47.381566,-0.04,-0.04,-1.32,51.5405958,-0.0119696
2026-06-18T10:45:47.439002,+0.09,-0.29,-0.79,51.5405958,-0.0119696
2026-06-18T10:45:47.503071,+0.07,-0.10,-0.89,51.5405958,-0.0119696
2026-06-18T10:45:47.593330,+0.15,-0.29,-0.95,51.5405958,-0.0119696
2026-06-18T10:45:47.647848,+0.06,-0.04,-0.85,51.5405958,-0.0119696
2026-06-18T10:45:47.710835,+0.22,-0.27,-0.79,51.5405958,-0.0119696
2026-06-18T10:45:47.768534,+0.13,-0.30,-0.96,51.5405958,-0.0119696
2026-06-18T10:45:47.828874,+0.10,-0.25,-1.06,51.5406208,-0.0119891
2026-06-18T10:45:47.920499,+0.09,-0.12,-0.91,51.5406208,-0.0119891
2026-06-18T10:45:47.977430,+0.05,-0.22,-1.06,51.5406208,-0.0119891
2026-06-18T10:45:48.041756,+0.14,-0.30,-0.58,51.5406208,-0.0119891
2026-06-18T10:45:48.099619,-0.08,-0.16,-0.92,51.5406208,-0.0119891
2026-06-18T10:45:48.162713,+0.08,-0.27,-0.89,51.5406208,-0.0119891
2026-06-18T10:45:48.252117,+0.13,-0.28,-1.00,51.5406208,-0.0119891
2026-06-18T10:45:48.308892,+0.21,-0.43,-1.10,51.5406208,-0.0119891
2026-06-18T10:45:48.370525,+0.05,-0.19,-1.12,51.5406208,-0.0119891
2026-06-18T10:45:48.428870,+0.16,-0.32,-0.75,51.5406208,-0.0119891
2026-06-18T10:45:48.490197,+0.22,-0.34,-0.91,51.5406208,-0.0119891
2026-06-18T10:45:48.581292,+0.08,-0.08,-0.98,51.5406208,-0.0119891
2026-06-18T10:45:48.637852,+0.08,-0.16,-1.02,51.5406208,-0.0119891
2026-06-18T10:45:48.701410,+0.14,-0.26,-0.74,51.5406208,-0.0119891
2026-06-18T10:45:48.758367,+0.19,-0.18,-0.75,51.5406208,-0.0119891
2026-06-18T10:45:48.847363,+0.06,-0.08,-1.01,51.5406469,-0.0120136
2026-06-18T10:45:48.912141,+0.04,-0.14,-0.96,51.5406469,-0.0120136
2026-06-18T10:45:48.968777,+0.26,-0.47,-0.99,51.5406469,-0.0120136
2026-06-18T10:45:49.032425,+0.08,-0.30,-0.77,51.5406469,-0.0120136
2026-06-18T10:45:49.087574,+0.04,-0.25,-1.07,51.5406469,-0.0120136
2026-06-18T10:45:49.181748,+0.08,-0.18,-0.94,51.5406469,-0.0120136
2026-06-18T10:45:49.238699,+0.07,-0.12,-1.17,51.5406469,-0.0120136
2026-06-18T10:45:49.301275,+0.21,-0.33,-0.76,51.5406469,-0.0120136
2026-06-18T10:45:49.361258,+0.16,-0.34,-0.72,51.5406469,-0.0120136
2026-06-18T10:45:49.422426,+0.06,-0.11,-1.13,51.5406469,-0.0120136
2026-06-18T10:45:49.506555,+0.16,-0.21,-0.87,51.5406469,-0.0120136
2026-06-18T10:45:49.566959,+0.08,-0.20,-1.06,51.5406469,-0.0120136
2026-06-18T10:45:49.631092,+0.06,-0.21,-1.22,51.5406469,-0.0120136
2026-06-18T10:45:49.688368,+0.04,-0.16,-0.98,51.5406469,-0.0120136
2026-06-18T10:45:49.777572,-0.15,+0.15,-1.12,51.5406469,-0.0120136
2026-06-18T10:45:49.837231,+0.11,-0.20,-0.99,51.540675,-0.0120673
2026-06-18T10:45:49.899622,+0.16,-0.28,-0.52,51.540675,-0.0120673
2026-06-18T10:45:49.961127,+0.18,-0.23,-0.65,51.540675,-0.0120673
2026-06-18T10:45:50.020200,+0.05,-0.20,-1.12,51.540675,-0.0120673
2026-06-18T10:45:50.109926,+0.10,-0.30,-1.11,51.540675,-0.0120673
2026-06-18T10:45:50.167728,+0.11,-0.25,-0.82,51.540675,-0.0120673
2026-06-18T10:45:50.229178,+0.11,-0.29,-0.77,51.540675,-0.0120673
2026-06-18T10:45:50.290835,-0.04,-0.07,-0.86,51.540675,-0.0120673
2026-06-18T10:45:50.348358,+0.09,-0.23,-1.20,51.540675,-0.0120673
2026-06-18T10:45:50.442689,+0.23,-0.29,-0.79,51.540675,-0.0120673
2026-06-18T10:45:50.497914,+0.29,-0.44,-0.76,51.540675,-0.0120673
2026-06-18T10:45:50.562357,+0.25,-0.26,-0.89,51.540675,-0.0120673
2026-06-18T10:45:50.615903,+0.09,-0.14,-0.90,51.540675,-0.0120673
2026-06-18T10:45:50.676895,+0.12,-0.21,-1.20,51.540675,-0.0120673
2026-06-18T10:45:50.770678,+0.10,-0.19,-0.96,51.540675,-0.0120673
2026-06-18T10:45:50.827653,+0.06,-0.32,-0.92,51.5407081,-0.0121481
2026-06-18T10:45:50.890148,-0.00,-0.27,-1.17,51.5407081,-0.0121481
2026-06-18T10:45:50.948055,-0.12,-0.08,-1.11,51.5407081,-0.0121481
2026-06-18T10:45:51.010333,-0.02,-0.14,-0.90,51.5407081,-0.0121481
2026-06-18T10:45:51.100547,-0.03,-0.05,-1.12,51.5407081,-0.0121481
2026-06-18T10:45:51.162583,-0.00,-0.10,-0.94,51.5407081,-0.0121481
2026-06-18T10:45:51.222764,-0.00,-0.07,-1.15,51.5407081,-0.0121481
2026-06-18T10:45:51.279191,+0.11,-0.21,-1.13,51.5407081,-0.0121481
2026-06-18T10:45:51.340148,+0.12,-0.40,-1.30,51.5407081,-0.0121481
2026-06-18T10:45:51.428693,+0.08,-0.12,-0.82,51.5407081,-0.0121481
2026-06-18T10:45:51.488255,+0.09,-0.37,-1.14,51.5407081,-0.0121481
2026-06-18T10:45:51.550199,+0.02,-0.00,-0.68,51.5407081,-0.0121481
2026-06-18T10:45:51.610503,+0.22,-0.16,-1.07,51.5407081,-0.0121481
2026-06-18T10:45:51.697675,+0.27,-0.35,-0.58,51.5407081,-0.0121481
2026-06-18T10:45:51.759567,-0.08,-0.00,-0.93,51.5407081,-0.0121481
2026-06-18T10:45:51.816249,-0.07,-0.02,-1.40,51.5407383,-0.0122274
2026-06-18T10:45:51.879423,+0.24,-0.33,-0.75,51.5407383,-0.0122274
2026-06-18T10:45:51.945066,+0.28,-0.41,-0.52,51.5407383,-0.0122274
2026-06-18T10:45:52.030376,-0.14,+0.04,-1.04,51.5407383,-0.0122274
2026-06-18T10:45:52.087827,+0.02,-0.24,-1.42,51.5407383,-0.0122274
2026-06-18T10:45:52.150359,+0.07,-0.26,-1.12,51.5407383,-0.0122274
2026-06-18T10:45:52.211560,+0.09,-0.17,-0.89,51.5407383,-0.0122274
2026-06-18T10:45:52.266486,+0.08,-0.01,-0.66,51.5407383,-0.0122274
2026-06-18T10:45:52.356919,+0.00,-0.03,-0.93,51.5407383,-0.0122274
2026-06-18T10:45:52.420796,+0.14,-0.25,-0.71,51.5407383,-0.0122274
2026-06-18T10:45:52.480850,+0.27,-0.40,-0.92,51.5407383,-0.0122274
2026-06-18T10:45:52.537890,+0.08,-0.16,-1.30,51.5407383,-0.0122274
2026-06-18T10:45:52.601914,-0.01,-0.10,-1.29,51.5407383,-0.0122274
2026-06-18T10:45:52.690557,+0.07,-0.23,-1.19,51.5407383,-0.0122274
2026-06-18T10:45:52.747381,+0.21,-0.34,-0.75,51.5407383,-0.0122274
2026-06-18T10:45:52.806893,-0.11,+0.03,-1.35,51.5407635,-0.0123003
2026-06-18T10:45:52.866045,-0.02,-0.04,-1.15,51.5407635,-0.0123003
2026-06-18T10:45:52.927942,+0.07,-0.18,-1.12,51.5407635,-0.0123003
2026-06-18T10:45:53.018555,+0.15,-0.52,-0.71,51.5407635,-0.0123003
2026-06-18T10:45:53.078067,-0.01,+0.06,-0.66,51.5407635,-0.0123003
2026-06-18T10:45:53.136502,+0.26,-0.40,-0.67,51.5407635,-0.0123003
2026-06-18T10:45:53.205599,+0.12,-0.25,-0.94,51.5407635,-0.0123003
2026-06-18T10:45:53.257729,+0.26,-0.42,-0.81,51.5407635,-0.0123003
2026-06-18T10:45:53.347558,+0.15,-0.41,-0.86,51.5407635,-0.0123003
2026-06-18T10:45:53.411157,+0.07,-0.20,-0.97,51.5407635,-0.0123003
2026-06-18T10:45:53.469603,+0.06,-0.13,-0.81,51.5407635,-0.0123003
2026-06-18T10:45:53.529427,+0.18,-0.30,-0.77,51.5407635,-0.0123003
2026-06-18T10:45:53.616503,+0.24,-0.41,-0.79,51.5407635,-0.0123003
2026-06-18T10:45:53.681997,+0.07,-0.15,-0.86,51.5407635,-0.0123003
2026-06-18T10:45:53.738918,+0.12,-0.34,-0.86,51.5407635,-0.0123003
2026-06-18T10:45:53.798882,+0.18,-0.38,-1.05,51.5407894,-0.012369
2026-06-18T10:45:53.888867,+0.12,-0.20,-0.98,51.5407894,-0.012369
2026-06-18T10:45:53.947255,+0.09,-0.29,-0.75,51.5407894,-0.012369
2026-06-18T10:45:54.009383,+0.19,-0.33,-0.81,51.5407894,-0.012369
2026-06-18T10:45:54.067476,+0.11,-0.11,-0.90,51.5407894,-0.012369
2026-06-18T10:45:54.129812,+0.30,-0.50,-1.13,51.5407894,-0.012369
2026-06-18T10:45:54.223699,+0.08,-0.15,-0.97,51.5407894,-0.012369
2026-06-18T10:45:54.278024,+0.14,-0.33,-1.00,51.5407894,-0.012369
2026-06-18T10:45:54.343749,+0.10,-0.36,-0.98,51.5407894,-0.012369
2026-06-18T10:45:54.398275,-0.14,+0.23,-1.21,51.5407894,-0.012369
2026-06-18T10:45:54.461479,+0.06,-0.24,-0.82,51.5407894,-0.012369
2026-06-18T10:45:54.549900,+0.17,-0.29,-0.89,51.5407894,-0.012369
2026-06-18T10:45:54.609622,+0.05,-0.27,-0.92,51.5407894,-0.012369
2026-06-18T10:45:54.671544,+0.07,-0.05,-1.27,51.5407894,-0.012369
2026-06-18T10:45:54.727921,+0.14,-0.25,-0.84,51.5407894,-0.012369
2026-06-18T10:45:54.799444,+0.20,-0.40,-0.50,51.5408189,-0.0124455
2026-06-18T10:45:54.881993,-0.08,-0.17,-1.27,51.5408189,-0.0124455
2026-06-18T10:45:54.937597,+0.09,-0.08,-1.06,51.5408189,-0.0124455
2026-06-18T10:45:55.000536,+0.21,-0.40,-0.74,51.5408189,-0.0124455
2026-06-18T10:45:55.057549,+0.11,-0.20,-1.04,51.5408189,-0.0124455
2026-06-18T10:45:55.120724,+0.07,-0.17,-0.88,51.5408189,-0.0124455
2026-06-18T10:45:55.211521,+0.09,-0.33,-0.79,51.5408189,-0.0124455
2026-06-18T10:45:55.268498,+0.11,-0.26,-1.00,51.5408189,-0.0124455
2026-06-18T10:45:55.330266,+0.21,-0.14,-0.73,51.5408189,-0.0124455
2026-06-18T10:45:55.388205,+0.07,-0.28,-1.14,51.5408189,-0.0124455
2026-06-18T10:45:55.450609,-0.00,-0.17,-1.03,51.5408189,-0.0124455
2026-06-18T10:45:55.539023,+0.23,-0.31,-1.10,51.5408189,-0.0124455
2026-06-18T10:45:55.597246,+0.03,-0.21,-0.92,51.5408189,-0.0124455
2026-06-18T10:45:55.656237,+0.06,-0.10,-0.92,51.5408189,-0.0124455
2026-06-18T10:45:55.723953,+0.07,-0.18,-0.82,51.5408189,-0.0124455
2026-06-18T10:45:55.808058,+0.15,-0.28,-0.82,51.5408465,-0.0125172
2026-06-18T10:45:55.867825,+0.10,-0.32,-0.88,51.5408465,-0.0125172
2026-06-18T10:45:55.931089,+0.12,-0.24,-0.80,51.5408465,-0.0125172
2026-06-18T10:45:55.987552,+0.25,-0.44,-1.04,51.5408465,-0.0125172
2026-06-18T10:45:56.049989,+0.14,-0.30,-0.78,51.5408465,-0.0125172
2026-06-18T10:45:56.140111,+0.05,-0.14,-0.99,51.5408465,-0.0125172
2026-06-18T10:45:56.198301,+0.15,-0.20,-0.85,51.5408465,-0.0125172
2026-06-18T10:45:56.258846,+0.06,-0.04,-0.90,51.5408465,-0.0125172
2026-06-18T10:45:56.316455,+0.10,-0.33,-0.94,51.5408465,-0.0125172
2026-06-18T10:45:56.381419,+0.16,-0.23,-0.85,51.5408465,-0.0125172
2026-06-18T10:45:56.468403,-0.05,-0.13,-1.11,51.5408465,-0.0125172
2026-06-18T10:45:56.530487,-0.01,-0.25,-1.00,51.5408465,-0.0125172
2026-06-18T10:45:56.589173,+0.05,-0.21,-0.96,51.5408465,-0.0125172
2026-06-18T10:45:56.652183,+0.03,-0.15,-0.81,51.5408465,-0.0125172
2026-06-18T10:45:56.708854,-0.07,-0.01,-1.02,51.5408465,-0.0125172
2026-06-18T10:45:56.796603,+0.17,-0.16,-1.13,51.5408465,-0.0125172
2026-06-18T10:45:56.859646,+0.22,-0.27,-0.95,51.5408731,-0.0125844
2026-06-18T10:45:56.919043,+0.14,-0.15,-0.81,51.5408731,-0.0125844
2026-06-18T10:45:56.977945,+0.03,-0.09,-1.04,51.5408731,-0.0125844
2026-06-18T10:45:57.043264,+0.07,-0.18,-0.89,51.5408731,-0.0125844
2026-06-18T10:45:57.128691,+0.27,-0.39,-0.80,51.5408731,-0.0125844
2026-06-18T10:45:57.191840,+0.03,-0.11,-1.31,51.5408731,-0.0125844
2026-06-18T10:45:57.250141,+0.11,-0.37,-1.15,51.5408731,-0.0125844
2026-06-18T10:45:57.307855,+0.14,-0.36,-0.83,51.5408731,-0.0125844
2026-06-18T10:45:57.370817,-0.02,-0.12,-1.09,51.5408731,-0.0125844
2026-06-18T10:45:57.463190,-0.04,-0.16,-1.06,51.5408731,-0.0125844
2026-06-18T10:45:57.518068,+0.07,-0.20,-1.06,51.5408731,-0.0125844
2026-06-18T10:45:57.581627,-0.09,-0.05,-1.16,51.5408731,-0.0125844
2026-06-18T10:45:57.640145,-0.29,+0.29,-1.54,51.5408731,-0.0125844
2026-06-18T10:45:57.704281,+0.23,-0.18,-1.00,51.5408731,-0.0125844
2026-06-18T10:45:57.789506,+0.06,-0.34,-1.03,51.5408731,-0.0125844
2026-06-18T10:45:57.847547,+0.06,+0.02,-0.70,51.5409035,-0.012648
2026-06-18T10:45:57.910133,+0.03,-0.12,-0.83,51.5409035,-0.012648
2026-06-18T10:45:57.969076,+0.02,-0.15,-1.06,51.5409035,-0.012648
2026-06-18T10:45:58.059230,+0.14,-0.26,-0.92,51.5409035,-0.012648
2026-06-18T10:45:58.120886,+0.37,-0.38,-0.46,51.5409035,-0.012648
2026-06-18T10:45:58.181169,+0.03,-0.20,-1.07,51.5409035,-0.012648
2026-06-18T10:45:58.241932,+0.05,-0.22,-1.17,51.5409035,-0.012648
2026-06-18T10:45:58.302513,+0.04,-0.15,-1.05,51.5409035,-0.012648
2026-06-18T10:45:58.389807,+0.14,-0.43,-0.85,51.5409035,-0.012648
2026-06-18T10:45:58.452503,-0.17,+0.09,-0.94,51.5409035,-0.012648
2026-06-18T10:45:58.509359,-0.07,-0.02,-1.14,51.5409035,-0.012648
2026-06-18T10:45:58.570659,+0.10,-0.22,-1.24,51.5409035,-0.012648
2026-06-18T10:45:58.629813,+0.14,-0.27,-0.85,51.5409035,-0.012648
2026-06-18T10:45:58.722368,+0.10,-0.24,-0.99,51.5409035,-0.012648
2026-06-18T10:45:58.780868,+0.21,-0.31,-0.82,51.5409035,-0.012648
2026-06-18T10:45:58.837790,+0.02,-0.14,-0.97,51.5409362,-0.0127017
2026-06-18T10:45:58.902062,+0.06,-0.22,-1.11,51.5409362,-0.0127017
2026-06-18T10:45:58.961513,+0.15,-0.17,-1.08,51.5409362,-0.0127017
2026-06-18T10:45:59.052030,+0.07,-0.11,-0.98,51.5409362,-0.0127017
2026-06-18T10:45:59.107976,+0.16,-0.39,-0.88,51.5409362,-0.0127017
2026-06-18T10:45:59.171042,+0.06,-0.20,-0.87,51.5409362,-0.0127017
2026-06-18T10:45:59.228347,+0.20,-0.43,-0.74,51.5409362,-0.0127017
2026-06-18T10:45:59.291120,+0.09,-0.16,-0.95,51.5409362,-0.0127017
2026-06-18T10:45:59.378160,+0.05,-0.18,-0.91,51.5409362,-0.0127017
2026-06-18T10:45:59.443226,+0.04,-0.16,-0.72,51.5409362,-0.0127017
2026-06-18T10:45:59.502627,+0.04,-0.23,-1.06,51.5409362,-0.0127017
2026-06-18T10:45:59.562110,+0.32,-0.40,-0.70,51.5409362,-0.0127017
2026-06-18T10:45:59.617709,+0.12,-0.16,-1.03,51.5409362,-0.0127017
2026-06-18T10:45:59.712959,+0.22,-0.32,-0.90,51.5409362,-0.0127017
2026-06-18T10:45:59.771929,+0.15,-0.13,-0.66,51.5409362,-0.0127017
2026-06-18T10:45:59.827458,+0.22,-0.33,-0.95,51.5409674,-0.0127518
2026-06-18T10:45:59.889956,+0.11,-0.16,-0.95,51.5409674,-0.0127518
2026-06-18T10:45:59.978376,+0.05,-0.31,-0.95,51.5409674,-0.0127518
2026-06-18T10:46:00.036932,+0.18,-0.33,-1.01,51.5409674,-0.0127518
2026-06-18T10:46:00.098693,+0.12,-0.22,-0.73,51.5409674,-0.0127518
2026-06-18T10:46:00.188947,+0.14,-0.30,-1.23,51.5409674,-0.0127518
2026-06-18T10:46:00.216860,+0.17,-0.23,-0.57,51.5409674,-0.0127518
2026-06-18T10:46:00.308869,+0.05,-0.20,-0.80,51.5409674,-0.0127518
2026-06-18T10:46:00.369662,+0.08,-0.15,-0.69,51.5409674,-0.0127518
2026-06-18T10:46:00.430076,+0.16,-0.36,-0.94,51.5409674,-0.0127518
2026-06-18T10:46:00.489089,+0.29,-0.37,-0.60,51.5409674,-0.0127518
2026-06-18T10:46:00.552757,+0.28,-0.53,-1.05,51.5409674,-0.0127518
2026-06-18T10:46:00.642112,+0.14,-0.30,-1.05,51.5409674,-0.0127518
2026-06-18T10:46:00.698167,-0.01,-0.20,-1.12,51.5409674,-0.0127518
2026-06-18T10:46:00.760770,+0.21,-0.36,-0.95,51.5409674,-0.0127518
2026-06-18T10:46:00.817221,+0.06,-0.13,-0.66,51.5409958,-0.0128025
2026-06-18T10:46:00.881993,+0.07,-0.22,-0.96,51.5409958,-0.0128025
2026-06-18T10:46:00.968905,+0.09,-0.23,-0.88,51.5409958,-0.0128025
2026-06-18T10:46:01.028237,+0.15,-0.32,-0.95,51.5409958,-0.0128025
2026-06-18T10:46:01.086373,+0.06,-0.22,-1.15,51.5409958,-0.0128025
2026-06-18T10:46:01.150878,+0.10,-0.26,-1.01,51.5409958,-0.0128025
2026-06-18T10:46:01.208056,-0.03,-0.11,-1.25,51.5409958,-0.0128025
2026-06-18T10:46:01.299557,+0.05,-0.15,-0.86,51.5409958,-0.0128025
2026-06-18T10:46:01.360787,+0.01,-0.09,-1.16,51.5409958,-0.0128025
2026-06-18T10:46:01.422576,+0.06,-0.17,-1.29,51.5409958,-0.0128025
2026-06-18T10:46:01.479482,+0.19,-0.15,-0.59,51.5409958,-0.0128025
2026-06-18T10:46:01.541014,+0.01,-0.06,-0.87,51.5409958,-0.0128025
2026-06-18T10:46:01.628592,+0.01,-0.20,-1.26,51.5409958,-0.0128025
2026-06-18T10:46:01.689971,+0.07,-0.20,-0.80,51.5409958,-0.0128025
2026-06-18T10:46:01.750501,+0.14,-0.26,-1.04,51.5409958,-0.0128025
2026-06-18T10:46:01.806389,+0.08,-0.35,-0.85,51.5410253,-0.0128608
2026-06-18T10:46:01.901617,+0.11,-0.29,-1.01,51.5410253,-0.0128608
2026-06-18T10:46:01.957409,+0.19,-0.44,-1.06,51.5410253,-0.0128608
2026-06-18T10:46:02.017639,+0.18,-0.33,-0.98,51.5410253,-0.0128608
2026-06-18T10:46:02.080435,+0.16,-0.32,-1.03,51.5410253,-0.0128608
2026-06-18T10:46:02.171742,-0.06,+0.04,-0.83,51.5410253,-0.0128608
2026-06-18T10:46:02.229554,+0.06,-0.23,-1.19,51.5410253,-0.0128608
2026-06-18T10:46:02.290289,+0.19,-0.17,-0.61,51.5410253,-0.0128608
2026-06-18T10:46:02.349065,+0.09,-0.26,-0.83,51.5410253,-0.0128608
2026-06-18T10:46:02.412901,+0.18,-0.26,-1.13,51.5410253,-0.0128608
2026-06-18T10:46:02.499290,+0.13,-0.02,-1.04,51.5410253,-0.0128608
2026-06-18T10:46:02.562183,+0.13,-0.29,-0.89,51.5410253,-0.0128608
2026-06-18T10:46:02.621880,+0.06,-0.21,-1.26,51.5410253,-0.0128608
2026-06-18T10:46:02.677337,+0.06,-0.18,-0.77,51.5410253,-0.0128608
2026-06-18T10:46:02.741629,+0.01,-0.12,-0.98,51.5410253,-0.0128608
2026-06-18T10:46:02.833911,+0.17,-0.33,-0.85,51.5410518,-0.0129052
2026-06-18T10:46:02.890061,-0.01,-0.12,-1.28,51.5410518,-0.0129052
2026-06-18T10:46:02.948,+0.17,-0.40,-0.71,51.5410518,-0.0129052
2026-06-18T10:46:03.007679,+0.10,-0.22,-0.82,51.5410518,-0.0129052
2026-06-18T10:46:03.070631,-0.04,-0.15,-1.14,51.5410518,-0.0129052
2026-06-18T10:46:03.162268,+0.09,-0.26,-1.21,51.5410518,-0.0129052
2026-06-18T10:46:03.218414,+0.14,-0.22,-0.67,51.5410518,-0.0129052
2026-06-18T10:46:03.280938,+0.08,-0.34,-1.06,51.5410518,-0.0129052
2026-06-18T10:46:03.341039,+0.09,-0.16,-0.95,51.5410518,-0.0129052
2026-06-18T10:46:03.397872,+0.09,-0.12,-1.13,51.5410518,-0.0129052
2026-06-18T10:46:03.489161,+0.16,-0.36,-0.76,51.5410518,-0.0129052
2026-06-18T10:46:03.547656,+0.06,-0.21,-1.03,51.5410518,-0.0129052
2026-06-18T10:46:03.608502,+0.07,-0.23,-0.92,51.5410518,-0.0129052
2026-06-18T10:46:03.669278,+0.13,-0.31,-0.84,51.5410518,-0.0129052
2026-06-18T10:46:03.731747,+0.09,-0.15,-0.99,51.5410518,-0.0129052
2026-06-18T10:46:03.818488,+0.06,-0.24,-0.81,51.5410784,-0.0129467
2026-06-18T10:46:03.879817,+0.12,-0.25,-0.99,51.5410784,-0.0129467
2026-06-18T10:46:03.941857,+0.14,-0.38,-0.84,51.5410784,-0.0129467
2026-06-18T10:46:04.000762,+0.03,-0.16,-1.24,51.5410784,-0.0129467
2026-06-18T10:46:04.091454,+0.07,-0.18,-1.06,51.5410784,-0.0129467
2026-06-18T10:46:04.148973,+0.11,-0.22,-0.96,51.5410784,-0.0129467
2026-06-18T10:46:04.212724,+0.03,-0.14,-0.88,51.5410784,-0.0129467
2026-06-18T10:46:04.269261,+0.14,-0.15,-1.11,51.5410784,-0.0129467
2026-06-18T10:46:04.331430,+0.27,-0.36,-0.79,51.5410784,-0.0129467
2026-06-18T10:46:04.424281,+0.17,-0.14,-0.74,51.5410784,-0.0129467
2026-06-18T10:46:04.479955,+0.33,-0.33,-0.81,51.5410784,-0.0129467
2026-06-18T10:46:04.541153,+0.02,-0.23,-0.93,51.5410784,-0.0129467
2026-06-18T10:46:04.598265,+0.05,-0.20,-0.89,51.5410784,-0.0129467
2026-06-18T10:46:04.659999,-0.00,-0.18,-1.07,51.5410784,-0.0129467
2026-06-18T10:46:04.750582,+0.14,-0.22,-0.98,51.5410784,-0.0129467
2026-06-18T10:46:04.806693,+0.05,-0.16,-0.88,51.5411021,-0.012987
2026-06-18T10:46:04.869244,+0.04,-0.12,-0.93,51.5411021,-0.012987
2026-06-18T10:46:04.929862,+0.20,-0.48,-1.00,51.5411021,-0.012987
2026-06-18T10:46:04.990912,+0.05,-0.26,-0.88,51.5411021,-0.012987
2026-06-18T10:46:05.082076,+0.05,-0.21,-1.05,51.5411021,-0.012987
2026-06-18T10:46:05.141830,+0.30,-0.39,-0.62,51.5411021,-0.012987
2026-06-18T10:46:05.203281,-0.03,-0.10,-1.06,51.5411021,-0.012987
2026-06-18T10:46:05.258097,+0.03,+0.03,-1.19,51.5411021,-0.012987
2026-06-18T10:46:05.323103,+0.23,-0.44,-0.72,51.5411021,-0.012987
2026-06-18T10:46:05.409118,+0.09,-0.13,-0.83,51.5411021,-0.012987
2026-06-18T10:46:05.469963,+0.13,-0.26,-1.07,51.5411021,-0.012987
2026-06-18T10:46:05.530173,+0.22,-0.08,-0.69,51.5411021,-0.012987
2026-06-18T10:46:05.588143,+0.15,-0.13,-0.77,51.5411021,-0.012987
2026-06-18T10:46:05.651761,+0.14,-0.17,-1.00,51.5411021,-0.012987
2026-06-18T10:46:05.739835,+0.16,-0.25,-0.94,51.5411021,-0.012987
2026-06-18T10:46:05.810969,+0.05,-0.08,-0.97,51.5411265,-0.0130243
2026-06-18T10:46:05.859059,-0.12,+0.02,-1.21,51.5411265,-0.0130243
2026-06-18T10:46:05.919205,+0.16,-0.30,-0.75,51.5411265,-0.0130243
2026-06-18T10:46:06.009160,+0.04,-0.29,-0.93,51.5411265,-0.0130243
2026-06-18T10:46:06.071706,+0.13,-0.46,-0.77,51.5411265,-0.0130243
2026-06-18T10:46:06.130967,+0.11,-0.34,-1.01,51.5411265,-0.0130243
2026-06-18T10:46:06.190647,-0.04,-0.05,-0.97,51.5411265,-0.0130243
2026-06-18T10:46:06.250838,+0.12,-0.19,-1.04,51.5411265,-0.0130243
2026-06-18T10:46:06.338653,+0.11,-0.09,-0.82,51.5411265,-0.0130243
2026-06-18T10:46:06.400696,+0.17,-0.23,-1.10,51.5411265,-0.0130243
2026-06-18T10:46:06.460969,+0.13,-0.28,-1.17,51.5411265,-0.0130243
2026-06-18T10:46:06.552141,+0.22,-0.28,-0.79,51.5411265,-0.0130243
2026-06-18T10:46:06.577045,+0.17,-0.14,-0.76,51.5411265,-0.0130243
2026-06-18T10:46:06.670667,+0.09,-0.06,-1.04,51.5411265,-0.0130243
2026-06-18T10:46:06.727477,+0.16,-0.24,-1.01,51.5411265,-0.0130243
2026-06-18T10:46:06.848452,+0.08,-0.29,-1.08,51.5411512,-0.0130688
2026-06-18T10:46:06.848846,+0.19,-0.31,-0.78,51.5411512,-0.0130688
2026-06-18T10:46:06.910823,+0.02,-0.32,-0.88,51.5411512,-0.0130688
2026-06-18T10:46:07.001252,-0.05,-0.06,-0.84,51.5411512,-0.0130688
2026-06-18T10:46:07.058815,+0.09,-0.37,-0.97,51.5411512,-0.0130688
2026-06-18T10:46:07.147725,-0.06,-0.18,-1.14,51.5411512,-0.0130688
2026-06-18T10:46:07.178648,+0.08,-0.35,-1.15,51.5411512,-0.0130688
2026-06-18T10:46:07.240675,-0.04,-0.07,-0.86,51.5411512,-0.0130688
2026-06-18T10:46:07.359009,+0.08,-0.16,-0.89,51.5411512,-0.0130688
2026-06-18T10:46:07.385924,+0.29,-0.31,-0.51,51.5411512,-0.0130688
2026-06-18T10:46:07.447519,+0.11,-0.28,-1.16,51.5411512,-0.0130688
2026-06-18T10:46:07.512559,+0.12,-0.09,-1.57,51.5411512,-0.0130688
2026-06-18T10:46:07.570419,+0.13,-0.24,-1.05,51.5411512,-0.0130688
2026-06-18T10:46:07.658290,+0.09,-0.27,-0.82,51.5411512,-0.0130688
2026-06-18T10:46:07.718996,+0.15,-0.24,-1.01,51.5411512,-0.0130688
2026-06-18T10:46:07.776043,+0.16,-0.35,-0.94,51.5411512,-0.0130688
2026-06-18T10:46:07.839503,+0.13,-0.24,-0.83,51.5411738,-0.0131101
2026-06-18T10:46:07.896272,-0.01,-0.16,-1.16,51.5411738,-0.0131101
2026-06-18T10:46:07.988158,+0.14,-0.25,-0.78,51.5411738,-0.0131101
2026-06-18T10:46:08.048751,+0.19,-0.28,-0.70,51.5411738,-0.0131101
2026-06-18T10:46:08.108981,+0.01,-0.15,-1.13,51.5411738,-0.0131101
2026-06-18T10:46:08.201585,-0.01,-0.32,-1.13,51.5411738,-0.0131101
2026-06-18T10:46:08.257640,+0.15,-0.20,-0.84,51.5411738,-0.0131101
2026-06-18T10:46:08.320474,+0.05,-0.26,-0.93,51.5411738,-0.0131101
2026-06-18T10:46:08.379131,+0.13,-0.23,-1.06,51.5411738,-0.0131101
2026-06-18T10:46:08.439584,+0.26,-0.32,-1.00,51.5411738,-0.0131101
2026-06-18T10:46:08.529665,-0.15,-0.07,-1.47,51.5411738,-0.0131101
2026-06-18T10:46:08.588282,+0.17,-0.29,-0.90,51.5411738,-0.0131101
2026-06-18T10:46:08.651112,+0.10,-0.31,-0.90,51.5411738,-0.0131101
2026-06-18T10:46:08.706406,+0.09,-0.13,-0.99,51.5411738,-0.0131101
2026-06-18T10:46:08.767413,+0.07,-0.25,-0.84,51.5411738,-0.0131101
2026-06-18T10:46:08.860069,+0.09,-0.06,-0.80,51.5412001,-0.0131426
2026-06-18T10:46:08.923484,+0.13,-0.35,-1.08,51.5412001,-0.0131426
2026-06-18T10:46:08.982548,-0.03,-0.17,-1.11,51.5412001,-0.0131426
2026-06-18T10:46:09.040467,+0.23,-0.36,-0.67,51.5412001,-0.0131426
2026-06-18T10:46:09.100786,+0.03,-0.27,-0.93,51.5412001,-0.0131426
2026-06-18T10:46:09.191132,-0.10,-0.10,-1.12,51.5412001,-0.0131426
2026-06-18T10:46:09.247560,+0.11,-0.30,-1.01,51.5412001,-0.0131426
2026-06-18T10:46:09.312543,+0.02,-0.16,-1.12,51.5412001,-0.0131426
2026-06-18T10:46:09.370960,+0.01,-0.21,-1.09,51.5412001,-0.0131426
2026-06-18T10:46:09.431134,+0.20,-0.23,-0.96,51.5412001,-0.0131426
2026-06-18T10:46:09.518032,+0.27,-0.27,-0.64,51.5412001,-0.0131426
2026-06-18T10:46:09.580588,+0.02,-0.21,-1.04,51.5412001,-0.0131426
2026-06-18T10:46:09.638297,+0.28,-0.34,-0.88,51.5412001,-0.0131426
2026-06-18T10:46:09.701826,+0.15,-0.15,-0.74,51.5412001,-0.0131426
2026-06-18T10:46:09.761936,+0.02,-0.16,-0.91,51.5412001,-0.0131426
2026-06-18T10:46:09.846613,-0.09,-0.08,-1.07,51.541225,-0.013185
2026-06-18T10:46:09.908925,+0.18,-0.26,-0.97,51.541225,-0.013185
2026-06-18T10:46:09.968827,+0.04,-0.18,-0.86,51.541225,-0.013185
2026-06-18T10:46:10.028112,+0.06,-0.26,-1.08,51.541225,-0.013185
2026-06-18T10:46:10.123338,+0.15,-0.34,-0.91,51.541225,-0.013185
2026-06-18T10:46:10.179038,-0.09,-0.14,-1.08,51.541225,-0.013185
2026-06-18T10:46:10.241697,+0.09,-0.26,-1.01,51.541225,-0.013185
2026-06-18T10:46:10.298555,+0.19,-0.38,-0.87,51.541225,-0.013185
2026-06-18T10:46:10.361581,+0.05,-0.15,-0.91,51.541225,-0.013185
2026-06-18T10:46:10.451304,+0.21,-0.24,-0.83,51.541225,-0.013185
2026-06-18T10:46:10.511194,+0.14,-0.28,-0.80,51.541225,-0.013185
2026-06-18T10:46:10.570515,+0.19,-0.25,-0.88,51.541225,-0.013185
2026-06-18T10:46:10.630403,+0.04,-0.23,-1.00,51.541225,-0.013185
2026-06-18T10:46:10.688829,+0.17,-0.20,-0.78,51.541225,-0.013185
2026-06-18T10:46:10.776023,+0.03,-0.26,-0.92,51.541225,-0.013185
2026-06-18T10:46:10.838252,-0.04,-0.09,-0.99,51.5412538,-0.0132303
2026-06-18T10:46:10.898244,+0.08,-0.22,-1.09,51.5412538,-0.0132303
2026-06-18T10:46:10.960598,+0.18,-0.37,-0.69,51.5412538,-0.0132303
2026-06-18T10:46:11.022621,-0.02,-0.14,-1.39,51.5412538,-0.0132303
2026-06-18T10:46:11.109954,+0.19,-0.32,-0.85,51.5412538,-0.0132303
2026-06-18T10:46:11.167959,+0.10,-0.22,-0.90,51.5412538,-0.0132303
2026-06-18T10:46:11.227679,-0.03,-0.22,-1.40,51.5412538,-0.0132303
2026-06-18T10:46:11.291694,+0.31,-0.42,-0.76,51.5412538,-0.0132303
2026-06-18T10:46:11.350136,+0.02,+0.04,-1.06,51.5412538,-0.0132303
2026-06-18T10:46:11.440337,+0.14,-0.28,-0.95,51.5412538,-0.0132303
2026-06-18T10:46:11.501782,+0.17,-0.30,-1.06,51.5412538,-0.0132303
2026-06-18T10:46:11.560321,+0.20,-0.19,-0.95,51.5412538,-0.0132303
2026-06-18T10:46:11.622790,-0.03,-0.06,-0.89,51.5412538,-0.0132303
2026-06-18T10:46:11.678303,+0.22,-0.19,-1.11,51.5412538,-0.0132303
2026-06-18T10:46:11.773677,+0.01,-0.27,-1.06,51.5412538,-0.0132303
2026-06-18T10:46:11.827526,+0.12,-0.24,-1.02,51.5412772,-0.0132732
2026-06-18T10:46:11.889814,+0.11,-0.20,-0.66,51.5412772,-0.0132732
2026-06-18T10:46:11.978051,+0.01,-0.16,-0.96,51.5412772,-0.0132732
2026-06-18T10:46:12.006418,-0.00,-0.19,-1.15,51.5412772,-0.0132732
2026-06-18T10:46:12.103213,+0.14,-0.37,-0.93,51.5412772,-0.0132732
2026-06-18T10:46:12.161925,+0.11,-0.28,-0.91,51.5412772,-0.0132732
2026-06-18T10:46:12.221315,+0.04,-0.24,-0.93,51.5412772,-0.0132732
2026-06-18T10:46:12.310888,-0.05,-0.12,-0.78,51.5412772,-0.0132732
2026-06-18T10:46:12.368582,+0.04,-0.13,-1.37,51.5412772,-0.0132732
2026-06-18T10:46:12.429419,+0.01,-0.20,-0.95,51.5412772,-0.0132732
2026-06-18T10:46:12.492156,+0.03,-0.14,-1.08,51.5412772,-0.0132732
2026-06-18T10:46:12.550149,+0.38,-0.19,-0.72,51.5412772,-0.0132732
2026-06-18T10:46:12.640385,-0.03,-0.04,-1.23,51.5412772,-0.0132732
2026-06-18T10:46:12.698602,+0.12,-0.27,-1.12,51.5412772,-0.0132732
2026-06-18T10:46:12.761151,+0.14,-0.21,-0.99,51.5412772,-0.0132732
2026-06-18T10:46:12.820790,+0.13,-0.19,-0.69,51.5412949,-0.0133137
2026-06-18T10:46:12.879779,-0.01,-0.22,-1.21,51.5412949,-0.0133137
2026-06-18T10:46:12.968968,+0.05,-0.08,-1.21,51.5412949,-0.0133137
2026-06-18T10:46:13.030973,+0.13,-0.28,-0.77,51.5412949,-0.0133137
2026-06-18T10:46:13.089057,+0.04,-0.17,-0.82,51.5412949,-0.0133137
2026-06-18T10:46:13.152425,+0.17,-0.37,-1.00,51.5412949,-0.0133137
2026-06-18T10:46:13.209655,+0.17,-0.25,-0.91,51.5412949,-0.0133137
2026-06-18T10:46:13.268136,+0.06,-0.21,-0.80,51.5412949,-0.0133137
2026-06-18T10:46:13.359747,+0.15,-0.26,-0.98,51.5412949,-0.0133137
2026-06-18T10:46:13.418934,-0.06,-0.01,-0.89,51.5412949,-0.0133137
2026-06-18T10:46:13.479805,+0.36,-0.04,-0.83,51.5412949,-0.0133137
2026-06-18T10:46:13.540771,+0.13,-0.24,-0.99,51.5412949,-0.0133137
2026-06-18T10:46:13.629262,+0.19,-0.34,-1.08,51.5412949,-0.0133137
2026-06-18T10:46:13.691936,+0.17,-0.30,-0.89,51.5412949,-0.0133137
2026-06-18T10:46:13.751210,+0.05,-0.16,-1.00,51.5412949,-0.0133137
2026-06-18T10:46:13.807723,+0.13,-0.19,-0.88,51.5413138,-0.0133622
2026-06-18T10:46:13.869813,+0.10,-0.33,-1.05,51.5413138,-0.0133622
2026-06-18T10:46:13.931139,+0.02,-0.13,-1.28,51.5413138,-0.0133622
2026-06-18T10:46:14.019346,-0.11,+0.08,-1.46,51.5413138,-0.0133622
2026-06-18T10:46:14.079620,+0.03,-0.30,-0.85,51.5413138,-0.0133622
2026-06-18T10:46:14.141580,+0.23,-0.36,-1.17,51.5413138,-0.0133622
2026-06-18T10:46:14.227770,+0.15,-0.32,-0.88,51.5413138,-0.0133622
2026-06-18T10:46:14.288045,+0.21,-0.60,-1.08,51.5413138,-0.0133622
2026-06-18T10:46:14.350385,-0.00,-0.17,-1.00,51.5413138,-0.0133622
2026-06-18T10:46:14.407836,-0.01,-0.10,-0.92,51.5413138,-0.0133622
2026-06-18T10:46:14.471607,+0.15,-0.12,-0.87,51.5413138,-0.0133622
2026-06-18T10:46:14.561322,+0.11,-0.23,-0.76,51.5413138,-0.0133622
2026-06-18T10:46:14.618417,+0.20,-0.21,-0.89,51.5413138,-0.0133622
2026-06-18T10:46:14.680672,+0.07,-0.14,-1.02,51.5413138,-0.0133622
2026-06-18T10:46:14.737373,+0.15,-0.23,-0.82,51.5413138,-0.0133622
2026-06-18T10:46:14.802161,+0.11,+0.02,-0.76,51.5413326,-0.0134012
2026-06-18T10:46:14.890552,+0.11,-0.23,-0.96,51.5413326,-0.0134012
2026-06-18T10:46:14.950557,+0.04,-0.20,-1.14,51.5413326,-0.0134012
2026-06-18T10:46:15.011059,+0.22,-0.24,-0.83,51.5413326,-0.0134012
2026-06-18T10:46:15.076113,+0.12,-0.22,-0.59,51.5413326,-0.0134012
2026-06-18T10:46:15.130778,+0.01,-0.08,-0.86,51.5413326,-0.0134012
2026-06-18T10:46:15.219528,+0.00,-0.23,-1.07,51.5413326,-0.0134012
2026-06-18T10:46:15.281513,+0.06,-0.31,-1.12,51.5413326,-0.0134012
2026-06-18T10:46:15.343719,+0.05,-0.27,-0.69,51.5413326,-0.0134012
2026-06-18T10:46:15.397685,+0.10,-0.25,-0.98,51.5413326,-0.0134012
2026-06-18T10:46:15.463048,+0.05,-0.09,-0.72,51.5413326,-0.0134012
2026-06-18T10:46:15.550265,+0.23,-0.19,-0.95,51.5413326,-0.0134012
2026-06-18T10:46:15.609986,+0.06,-0.19,-1.18,51.5413326,-0.0134012
2026-06-18T10:46:15.671303,+0.19,-0.24,-0.75,51.5413326,-0.0134012
2026-06-18T10:46:15.729991,+0.16,-0.19,-0.88,51.5413326,-0.0134012
2026-06-18T10:46:15.786897,+0.15,-0.25,-1.14,51.5413326,-0.0134012
2026-06-18T10:46:15.879107,+0.19,-0.31,-0.66,51.5413538,-0.0134449
2026-06-18T10:46:15.941240,+0.03,-0.04,-1.05,51.5413538,-0.0134449
2026-06-18T10:46:15.999434,-0.05,-0.16,-1.03,51.5413538,-0.0134449
2026-06-18T10:46:16.058752,+0.22,-0.24,-0.93,51.5413538,-0.0134449
2026-06-18T10:46:16.123174,+0.07,-0.17,-0.78,51.5413538,-0.0134449
2026-06-18T10:46:16.208634,+0.20,-0.24,-0.91,51.5413538,-0.0134449
2026-06-18T10:46:16.268450,+0.07,-0.26,-1.08,51.5413538,-0.0134449
2026-06-18T10:46:16.332329,+0.07,-0.30,-1.00,51.5413538,-0.0134449
2026-06-18T10:46:16.393318,+0.11,-0.09,-0.84,51.5413538,-0.0134449
2026-06-18T10:46:16.478800,+0.07,-0.11,-0.95,51.5413538,-0.0134449
2026-06-18T10:46:16.538474,+0.03,-0.21,-1.23,51.5413538,-0.0134449
2026-06-18T10:46:16.601229,+0.00,-0.18,-1.44,51.5413538,-0.0134449
2026-06-18T10:46:16.663818,+0.08,-0.06,-1.00,51.5413538,-0.0134449
2026-06-18T10:46:16.723863,+0.17,-0.30,-0.92,51.5413538,-0.0134449
2026-06-18T10:46:16.813774,-0.01,-0.17,-1.20,51.5413735,-0.0134904
2026-06-18T10:46:16.868321,+0.08,-0.17,-0.94,51.5413735,-0.0134904
2026-06-18T10:46:16.928916,+0.19,-0.39,-0.93,51.5413735,-0.0134904
2026-06-18T10:46:16.988657,+0.02,-0.12,-0.99,51.5413735,-0.0134904
2026-06-18T10:46:17.048826,+0.01,-0.20,-1.24,51.5413735,-0.0134904
2026-06-18T10:46:17.140313,+0.04,-0.20,-1.08,51.5413735,-0.0134904
2026-06-18T10:46:17.199688,+0.24,-0.45,-0.88,51.5413735,-0.0134904
2026-06-18T10:46:17.261970,+0.02,-0.29,-0.90,51.5413735,-0.0134904
2026-06-18T10:46:17.321285,+0.06,-0.17,-1.14,51.5413735,-0.0134904
2026-06-18T10:46:17.384943,+0.16,-0.35,-0.90,51.5413735,-0.0134904
2026-06-18T10:46:17.470446,-0.01,-0.11,-1.05,51.5413735,-0.0134904
2026-06-18T10:46:17.529349,+0.05,-0.16,-1.07,51.5413735,-0.0134904
2026-06-18T10:46:17.590215,-0.02,-0.17,-1.12,51.5413735,-0.0134904
2026-06-18T10:46:17.650986,+0.15,-0.13,-0.98,51.5413735,-0.0134904
2026-06-18T10:46:17.712664,+0.15,-0.28,-1.00,51.5413735,-0.0134904
2026-06-18T10:46:17.796838,+0.28,-0.25,-0.77,51.5413973,-0.01354
2026-06-18T10:46:17.858635,+0.05,-0.27,-1.12,51.5413973,-0.01354
2026-06-18T10:46:17.921264,+0.00,-0.17,-0.99,51.5413973,-0.01354
2026-06-18T10:46:17.978151,+0.15,-0.19,-0.92,51.5413973,-0.01354
2026-06-18T10:46:18.041579,+0.13,-0.18,-0.84,51.5413973,-0.01354
2026-06-18T10:46:18.128716,+0.20,-0.27,-0.98,51.5413973,-0.01354
2026-06-18T10:46:18.189790,+0.02,-0.11,-0.99,51.5413973,-0.01354
2026-06-18T10:46:18.250683,+0.10,-0.23,-1.13,51.5413973,-0.01354
2026-06-18T10:46:18.308774,+0.07,-0.17,-0.77,51.5413973,-0.01354
2026-06-18T10:46:18.402755,+0.14,-0.31,-0.80,51.5413973,-0.01354
2026-06-18T10:46:18.462655,-0.05,-0.06,-1.31,51.5413973,-0.01354
2026-06-18T10:46:18.520362,+0.07,-0.31,-1.20,51.5413973,-0.01354
2026-06-18T10:46:18.579565,-0.11,+0.14,-0.86,51.5413973,-0.01354
2026-06-18T10:46:18.641816,-0.01,-0.15,-1.06,51.5413973,-0.01354
2026-06-18T10:46:18.729714,+0.20,-0.32,-0.92,51.5413973,-0.01354
2026-06-18T10:46:18.786428,+0.14,-0.38,-1.03,51.5413973,-0.01354
2026-06-18T10:46:18.847845,+0.24,-0.35,-0.54,51.5414215,-0.0135816
2026-06-18T10:46:18.907988,-0.00,-0.12,-0.69,51.5414215,-0.0135816
2026-06-18T10:46:18.970515,+0.30,-0.39,-0.60,51.5414215,-0.0135816
2026-06-18T10:46:19.063859,+0.17,-0.37,-1.12,51.5414215,-0.0135816
2026-06-18T10:46:19.118266,+0.10,-0.24,-0.64,51.5414215,-0.0135816
2026-06-18T10:46:19.180622,+0.20,-0.20,-0.56,51.5414215,-0.0135816
2026-06-18T10:46:19.241069,-0.10,-0.03,-1.47,51.5414215,-0.0135816
2026-06-18T10:46:19.298729,-0.04,-0.23,-1.00,51.5414215,-0.0135816
2026-06-18T10:46:19.388828,+0.23,-0.31,-0.70,51.5414215,-0.0135816
2026-06-18T10:46:19.450281,-0.12,+0.02,-1.21,51.5414215,-0.0135816
2026-06-18T10:46:19.511388,+0.39,-0.53,-0.64,51.5414215,-0.0135816
2026-06-18T10:46:19.570238,-0.10,-0.02,-1.28,51.5414215,-0.0135816
2026-06-18T10:46:19.629901,+0.10,-0.30,-0.93,51.5414215,-0.0135816
2026-06-18T10:46:19.723259,+0.43,-0.53,-0.18,51.5414215,-0.0135816
2026-06-18T10:46:19.777464,-0.05,-0.05,-0.96,51.5414215,-0.0135816
2026-06-18T10:46:19.837609,-0.00,-0.18,-1.13,51.5414437,-0.0136181
2026-06-18T10:46:19.900485,+0.09,-0.20,-0.77,51.5414437,-0.0136181
2026-06-18T10:46:19.960694,+0.13,-0.34,-0.92,51.5414437,-0.0136181
2026-06-18T10:46:20.052056,-0.06,-0.10,-1.38,51.5414437,-0.0136181
2026-06-18T10:46:20.110841,+0.06,-0.28,-0.76,51.5414437,-0.0136181
2026-06-18T10:46:20.169666,-0.03,-0.07,-0.98,51.5414437,-0.0136181
2026-06-18T10:46:20.229358,+0.08,-0.19,-0.84,51.5414437,-0.0136181
2026-06-18T10:46:20.320700,+0.30,-0.30,-0.64,51.5414437,-0.0136181
2026-06-18T10:46:20.382210,-0.00,-0.08,-0.97,51.5414437,-0.0136181
2026-06-18T10:46:20.441418,-0.03,-0.17,-1.46,51.5414437,-0.0136181
2026-06-18T10:46:20.503635,-0.13,-0.13,-1.19,51.5414437,-0.0136181
2026-06-18T10:46:20.557851,+0.17,-0.43,-0.97,51.5414437,-0.0136181
2026-06-18T10:46:20.651956,+0.07,-0.06,-0.78,51.5414437,-0.0136181
2026-06-18T10:46:20.710108,+0.07,-0.27,-0.77,51.5414437,-0.0136181
2026-06-18T10:46:20.768802,-0.05,-0.18,-1.47,51.5414437,-0.0136181
2026-06-18T10:46:20.828434,-0.22,-0.07,-1.02,51.5414666,-0.0136596
2026-06-18T10:46:20.889552,+0.24,-0.49,-1.19,51.5414666,-0.0136596
2026-06-18T10:46:20.979432,+0.09,-0.40,-1.23,51.5414666,-0.0136596
2026-06-18T10:46:21.041521,+0.07,-0.27,-0.68,51.5414666,-0.0136596
2026-06-18T10:46:21.099088,-0.19,+0.11,-1.27,51.5414666,-0.0136596
2026-06-18T10:46:21.161682,+0.06,-0.30,-0.85,51.5414666,-0.0136596
2026-06-18T10:46:21.222367,+0.10,-0.20,-0.92,51.5414666,-0.0136596
2026-06-18T10:46:21.310086,-0.09,+0.04,-1.15,51.5414666,-0.0136596
2026-06-18T10:46:21.370831,-0.03,-0.21,-1.00,51.5414666,-0.0136596
2026-06-18T10:46:21.432422,-0.07,+0.04,-0.92,51.5414666,-0.0136596
2026-06-18T10:46:21.487810,+0.11,-0.37,-0.91,51.5414666,-0.0136596
2026-06-18T10:46:21.547403,-0.06,-0.09,-1.11,51.5414666,-0.0136596
2026-06-18T10:46:21.641026,+0.09,-0.37,-0.86,51.5414666,-0.0136596
2026-06-18T10:46:21.699299,-0.01,-0.14,-0.86,51.5414666,-0.0136596
2026-06-18T10:46:21.760646,-0.01,-0.12,-0.96,51.5414666,-0.0136596
2026-06-18T10:46:21.818967,+0.06,-0.23,-1.06,51.5414833,-0.0137051
2026-06-18T10:46:21.880479,+0.05,-0.09,-1.13,51.5414833,-0.0137051
2026-06-18T10:46:21.970028,-0.09,-0.18,-1.12,51.5414833,-0.0137051
2026-06-18T10:46:22.028156,-0.03,-0.28,-0.86,51.5414833,-0.0137051
2026-06-18T10:46:22.092247,+0.04,-0.19,-0.85,51.5414833,-0.0137051
2026-06-18T10:46:22.150487,-0.09,-0.31,-0.68,51.5414833,-0.0137051
2026-06-18T10:46:22.210261,+0.27,-0.11,-1.07,51.5414833,-0.0137051
2026-06-18T10:46:22.301605,+0.05,-0.23,-0.92,51.5414833,-0.0137051
2026-06-18T10:46:22.358936,+0.12,-0.30,-1.02,51.5414833,-0.0137051
2026-06-18T10:46:22.422882,-0.01,+0.01,-1.14,51.5414833,-0.0137051
2026-06-18T10:46:22.509812,-0.07,-0.49,-1.02,51.5414833,-0.0137051
2026-06-18T10:46:22.573320,+0.16,-0.06,-1.09,51.5414833,-0.0137051
2026-06-18T10:46:22.631005,+0.01,-0.14,-0.80,51.5414833,-0.0137051
2026-06-18T10:46:22.689936,+0.23,-0.11,-1.04,51.5414833,-0.0137051
2026-06-18T10:46:22.751054,+0.08,-0.40,-0.83,51.5414833,-0.0137051
2026-06-18T10:46:22.837860,+0.14,-0.26,-0.86,51.5414886,-0.0137576
2026-06-18T10:46:22.900310,+0.09,-0.15,-0.84,51.5414886,-0.0137576
2026-06-18T10:46:22.960355,+0.01,-0.14,-0.96,51.5414886,-0.0137576
2026-06-18T10:46:23.018228,+0.28,-0.50,-0.69,51.5414886,-0.0137576
2026-06-18T10:46:23.081475,-0.05,+0.04,-0.99,51.5414886,-0.0137576
2026-06-18T10:46:23.169430,+0.05,-0.36,-0.90,51.5414886,-0.0137576
2026-06-18T10:46:23.228449,+0.12,-0.34,-0.79,51.5414886,-0.0137576
2026-06-18T10:46:23.290992,+0.02,-0.20,-1.06,51.5414886,-0.0137576
2026-06-18T10:46:23.349920,+0.12,-0.23,-0.90,51.5414886,-0.0137576
2026-06-18T10:46:23.410201,+0.06,-0.30,-1.00,51.5414886,-0.0137576
2026-06-18T10:46:23.501659,+0.04,-0.20,-0.95,51.5414886,-0.0137576
2026-06-18T10:46:23.559535,+0.27,-0.26,-0.70,51.5414886,-0.0137576
2026-06-18T10:46:23.621903,+0.35,-0.22,-0.61,51.5414886,-0.0137576
2026-06-18T10:46:23.678662,+0.03,-0.35,-0.91,51.5414886,-0.0137576
2026-06-18T10:46:23.740794,+0.03,-0.36,-0.91,51.5414886,-0.0137576
2026-06-18T10:46:23.859770,+0.14,-0.32,-0.88,51.5414787,-0.0138125
2026-06-18T10:46:23.886756,+0.02,-0.18,-0.97,51.5414787,-0.0138125
2026-06-18T10:46:23.949942,-0.12,-0.02,-1.27,51.5414787,-0.0138125
2026-06-18T10:46:24.009191,+0.22,-0.39,-0.73,51.5414787,-0.0138125
2026-06-18T10:46:24.068749,+0.15,-0.22,-1.05,51.5414787,-0.0138125
2026-06-18T10:46:24.159174,-0.08,-0.02,-1.32,51.5414787,-0.0138125
2026-06-18T10:46:24.224421,+0.01,-0.09,-0.98,51.5414787,-0.0138125
2026-06-18T10:46:24.277730,+0.15,-0.27,-0.82,51.5414787,-0.0138125
2026-06-18T10:46:24.341382,+0.19,-0.46,-0.90,51.5414787,-0.0138125
2026-06-18T10:46:24.398579,-0.02,-0.18,-1.03,51.5414787,-0.0138125
2026-06-18T10:46:24.489752,-0.00,-0.39,-1.17,51.5414787,-0.0138125
2026-06-18T10:46:24.549214,+0.16,-0.34,-0.74,51.5414787,-0.0138125
2026-06-18T10:46:24.609164,+0.23,-0.39,-0.84,51.5414787,-0.0138125
2026-06-18T10:46:24.668539,-0.02,-0.14,-0.85,51.5414787,-0.0138125
2026-06-18T10:46:24.763005,+0.11,-0.31,-0.67,51.5414787,-0.0138125
2026-06-18T10:46:24.818760,+0.16,-0.28,-1.17,51.5414657,-0.0138567
2026-06-18T10:46:24.880690,+0.03,-0.19,-0.99,51.5414657,-0.0138567
2026-06-18T10:46:24.940753,+0.12,-0.28,-1.19,51.5414657,-0.0138567
2026-06-18T10:46:25.002188,+0.09,-0.49,-1.30,51.5414657,-0.0138567
2026-06-18T10:46:25.089602,-0.04,-0.35,-0.64,51.5414657,-0.0138567
2026-06-18T10:46:25.148051,+0.12,-0.05,-1.25,51.5414657,-0.0138567
2026-06-18T10:46:25.211323,+0.07,-0.28,-0.98,51.5414657,-0.0138567
2026-06-18T10:46:25.268009,+0.30,-0.33,-0.33,51.5414657,-0.0138567
2026-06-18T10:46:25.332721,+0.27,-0.28,-1.05,51.5414657,-0.0138567
2026-06-18T10:46:25.423198,+0.11,-0.30,-1.05,51.5414657,-0.0138567
2026-06-18T10:46:25.476837,+0.03,-0.13,-0.94,51.5414657,-0.0138567
2026-06-18T10:46:25.541172,+0.17,-0.42,-0.84,51.5414657,-0.0138567
2026-06-18T10:46:25.599472,+0.10,-0.19,-0.81,51.5414657,-0.0138567
2026-06-18T10:46:25.659443,+0.08,-0.25,-0.97,51.5414657,-0.0138567
2026-06-18T10:46:25.750248,+0.06,-0.35,-0.78,51.5414657,-0.0138567
2026-06-18T10:46:25.805998,+0.20,-0.42,-0.85,51.5414442,-0.0138977
2026-06-18T10:46:25.870,-0.02,-0.18,-0.83,51.5414442,-0.0138977
2026-06-18T10:46:25.929531,+0.06,-0.28,-1.00,51.5414442,-0.0138977
2026-06-18T10:46:25.990872,+0.12,-0.35,-0.62,51.5414442,-0.0138977
2026-06-18T10:46:26.079626,+0.04,-0.01,-0.83,51.5414442,-0.0138977
2026-06-18T10:46:26.138213,+0.07,-0.25,-1.22,51.5414442,-0.0138977
2026-06-18T10:46:26.200311,+0.20,-0.14,-0.78,51.5414442,-0.0138977
2026-06-18T10:46:26.261840,+0.13,-0.17,-1.02,51.5414442,-0.0138977
2026-06-18T10:46:26.324328,+0.18,-0.33,-0.97,51.5414442,-0.0138977
2026-06-18T10:46:26.408710,+0.02,-0.17,-0.95,51.5414442,-0.0138977
2026-06-18T10:46:26.468561,+0.12,-0.22,-1.13,51.5414442,-0.0138977
2026-06-18T10:46:26.531184,+0.13,-0.32,-0.97,51.5414442,-0.0138977
2026-06-18T10:46:26.589391,+0.14,-0.08,-0.78,51.5414442,-0.0138977
2026-06-18T10:46:26.681836,+0.18,-0.21,-1.07,51.5414442,-0.0138977
2026-06-18T10:46:26.738352,+0.09,-0.22,-0.94,51.5414442,-0.0138977
2026-06-18T10:46:26.804791,+0.06,-0.23,-0.82,51.5414214,-0.0139407
2026-06-18T10:46:26.858492,-0.06,-0.26,-1.16,51.5414214,-0.0139407
2026-06-18T10:46:26.920315,+0.14,-0.33,-1.02,51.5414214,-0.0139407
2026-06-18T10:46:27.010718,+0.16,-0.27,-0.73,51.5414214,-0.0139407
2026-06-18T10:46:27.068663,+0.06,-0.21,-0.96,51.5414214,-0.0139407
2026-06-18T10:46:27.129788,+0.10,-0.34,-0.80,51.5414214,-0.0139407
2026-06-18T10:46:27.191587,-0.03,-0.12,-1.04,51.5414214,-0.0139407
2026-06-18T10:46:27.247628,+0.08,-0.31,-1.05,51.5414214,-0.0139407
2026-06-18T10:46:27.339084,+0.09,-0.23,-0.89,51.5414214,-0.0139407
2026-06-18T10:46:27.401834,+0.20,-0.37,-0.82,51.5414214,-0.0139407
2026-06-18T10:46:27.462453,+0.19,-0.33,-0.94,51.5414214,-0.0139407
2026-06-18T10:46:27.518903,+0.17,-0.30,-0.77,51.5414214,-0.0139407
2026-06-18T10:46:27.581626,+0.24,-0.20,-0.81,51.5414214,-0.0139407
2026-06-18T10:46:27.670096,+0.13,-0.10,-1.09,51.5414214,-0.0139407
2026-06-18T10:46:27.727711,+0.21,-0.20,-0.86,51.5414214,-0.0139407
2026-06-18T10:46:27.796634,+0.13,-0.17,-1.04,51.541395,-0.013972
2026-06-18T10:46:27.849344,+0.16,-0.24,-0.89,51.541395,-0.013972
2026-06-18T10:46:27.909917,+0.09,-0.31,-0.85,51.541395,-0.013972
2026-06-18T10:46:28.002713,+0.01,-0.18,-1.04,51.541395,-0.013972
2026-06-18T10:46:28.061517,+0.06,-0.23,-0.99,51.541395,-0.013972
2026-06-18T10:46:28.122206,+0.09,-0.23,-0.98,51.541395,-0.013972
2026-06-18T10:46:28.181646,+0.07,-0.25,-1.09,51.541395,-0.013972
2026-06-18T10:46:28.237633,+0.10,-0.21,-1.03,51.541395,-0.013972
2026-06-18T10:46:28.329316,+0.10,-0.26,-0.95,51.541395,-0.013972
2026-06-18T10:46:28.389245,+0.17,-0.30,-0.94,51.541395,-0.013972
2026-06-18T10:46:28.450758,-0.06,-0.03,-1.38,51.541395,-0.013972
2026-06-18T10:46:28.511063,+0.08,-0.19,-0.98,51.541395,-0.013972
2026-06-18T10:46:28.600238,+0.16,-0.32,-0.84,51.541395,-0.013972
2026-06-18T10:46:28.658122,+0.17,-0.26,-0.83,51.541395,-0.013972
2026-06-18T10:46:28.718963,+0.17,-0.28,-0.77,51.541395,-0.013972
2026-06-18T10:46:28.778966,+0.06,-0.07,-1.11,51.541395,-0.013972
2026-06-18T10:46:28.839345,+0.20,-0.25,-0.97,51.5413688,-0.0139982
2026-06-18T10:46:28.931595,+0.04,-0.23,-0.93,51.5413688,-0.0139982
2026-06-18T10:46:28.990979,+0.28,-0.19,-0.83,51.5413688,-0.0139982
2026-06-18T10:46:29.051549,+0.14,-0.15,-0.81,51.5413688,-0.0139982
2026-06-18T10:46:29.108592,+0.12,-0.22,-0.99,51.5413688,-0.0139982
2026-06-18T10:46:29.169527,+0.14,-0.17,-0.84,51.5413688,-0.0139982
2026-06-18T10:46:29.260183,+0.05,-0.28,-1.03,51.5413688,-0.0139982
2026-06-18T10:46:29.317561,+0.07,-0.32,-0.99,51.5413688,-0.0139982
2026-06-18T10:46:29.381751,-0.02,-0.08,-0.92,51.5413688,-0.0139982
2026-06-18T10:46:29.440489,+0.08,-0.24,-1.13,51.5413688,-0.0139982
2026-06-18T10:46:29.501477,+0.09,-0.22,-0.95,51.5413688,-0.0139982
2026-06-18T10:46:29.588768,+0.09,-0.17,-1.06,51.5413688,-0.0139982
2026-06-18T10:46:29.647853,+0.13,-0.20,-0.99,51.5413688,-0.0139982
2026-06-18T10:46:29.711009,+0.03,-0.35,-0.96,51.5413688,-0.0139982
2026-06-18T10:46:29.771838,-0.01,-0.19,-1.06,51.5413688,-0.0139982
2026-06-18T10:46:29.828156,+0.02,-0.14,-1.14,51.541344,-0.0140279
2026-06-18T10:46:29.921474,+0.14,-0.24,-0.85,51.541344,-0.0140279
2026-06-18T10:46:29.977617,+0.10,-0.13,-1.18,51.541344,-0.0140279
2026-06-18T10:46:30.039201,+0.19,-0.20,-0.89,51.541344,-0.0140279
2026-06-18T10:46:30.102458,+0.14,-0.16,-0.98,51.541344,-0.0140279
2026-06-18T10:46:30.159605,+0.10,-0.18,-1.22,51.541344,-0.0140279
2026-06-18T10:46:30.251430,+0.05,-0.21,-0.99,51.541344,-0.0140279
2026-06-18T10:46:30.308439,+0.11,-0.24,-1.11,51.541344,-0.0140279
2026-06-18T10:46:30.371355,+0.17,-0.10,-0.98,51.541344,-0.0140279
2026-06-18T10:46:30.428084,+0.18,-0.29,-0.94,51.541344,-0.0140279
2026-06-18T10:46:30.490639,+0.04,-0.19,-0.94,51.541344,-0.0140279
2026-06-18T10:46:30.578806,+0.10,-0.23,-1.00,51.541344,-0.0140279
2026-06-18T10:46:30.642147,+0.11,-0.20,-0.98,51.541344,-0.0140279
2026-06-18T10:46:30.701140,+0.16,-0.36,-0.78,51.541344,-0.0140279
2026-06-18T10:46:30.786745,+0.13,-0.25,-0.66,51.541344,-0.0140279
2026-06-18T10:46:30.848131,-0.04,-0.23,-1.12,51.5413215,-0.0140602
2026-06-18T10:46:30.911253,+0.06,-0.33,-1.00,51.5413215,-0.0140602
2026-06-18T10:46:30.968365,-0.03,-0.16,-1.37,51.5413215,-0.0140602
2026-06-18T10:46:31.029302,+0.04,-0.23,-1.02,51.5413215,-0.0140602
2026-06-18T10:46:31.121935,+0.07,-0.21,-0.95,51.5413215,-0.0140602
2026-06-18T10:46:31.180870,+0.09,-0.18,-1.15,51.5413215,-0.0140602
2026-06-18T10:46:31.240996,+0.12,-0.04,-0.82,51.5413215,-0.0140602
2026-06-18T10:46:31.298666,+0.22,-0.21,-0.83,51.5413215,-0.0140602
2026-06-18T10:46:31.363184,+0.31,-0.40,-0.70,51.5413215,-0.0140602
2026-06-18T10:46:31.451402,+0.05,-0.10,-0.97,51.5413215,-0.0140602
2026-06-18T10:46:31.508751,+0.22,-0.34,-0.85,51.5413215,-0.0140602
2026-06-18T10:46:31.570455,+0.24,-0.21,-0.72,51.5413215,-0.0140602
2026-06-18T10:46:31.628259,+0.14,-0.17,-1.14,51.5413215,-0.0140602
2026-06-18T10:46:31.691303,+0.07,-0.10,-1.05,51.5413215,-0.0140602
2026-06-18T10:46:31.776650,+0.01,-0.20,-0.94,51.5413215,-0.0140602
2026-06-18T10:46:31.837555,+0.13,-0.26,-1.03,51.541299,-0.0140971
2026-06-18T10:46:31.900716,+0.11,-0.29,-0.80,51.541299,-0.0140971
2026-06-18T10:46:31.957602,+0.05,-0.24,-1.05,51.541299,-0.0140971
2026-06-18T10:46:32.023714,+0.06,-0.39,-0.80,51.541299,-0.0140971
2026-06-18T10:46:32.109871,+0.17,-0.40,-0.56,51.541299,-0.0140971
2026-06-18T10:46:32.169901,+0.10,-0.35,-1.09,51.541299,-0.0140971
2026-06-18T10:46:32.230025,+0.16,-0.30,-0.68,51.541299,-0.0140971
2026-06-18T10:46:32.290405,+0.20,-0.58,-0.57,51.541299,-0.0140971
2026-06-18T10:46:32.350004,+0.07,-0.17,-1.11,51.541299,-0.0140971
2026-06-18T10:46:32.439024,+0.02,-0.08,-0.91,51.541299,-0.0140971
2026-06-18T10:46:32.498749,+0.12,-0.05,-0.99,51.541299,-0.0140971
2026-06-18T10:46:32.563515,+0.08,-0.11,-0.93,51.541299,-0.0140971
2026-06-18T10:46:32.618429,+0.12,-0.14,-1.20,51.541299,-0.0140971
2026-06-18T10:46:32.711763,+0.12,-0.19,-1.16,51.541299,-0.0140971
2026-06-18T10:46:32.771558,+0.09,-0.09,-1.22,51.541299,-0.0140971
2026-06-18T10:46:32.828739,+0.16,-0.34,-0.75,51.5412764,-0.0141341
2026-06-18T10:46:32.890749,+0.04,-0.06,-1.29,51.5412764,-0.0141341
2026-06-18T10:46:32.950680,+0.06,-0.16,-1.22,51.5412764,-0.0141341
2026-06-18T10:46:33.038734,+0.06,-0.28,-0.90,51.5412764,-0.0141341
2026-06-18T10:46:33.100211,+0.21,-0.28,-0.83,51.5412764,-0.0141341
2026-06-18T10:46:33.160993,+0.07,-0.20,-1.12,51.5412764,-0.0141341
2026-06-18T10:46:33.224063,-0.07,-0.13,-0.93,51.5412764,-0.0141341
2026-06-18T10:46:33.279199,+0.19,-0.41,-0.88,51.5412764,-0.0141341
2026-06-18T10:46:33.371941,+0.07,-0.27,-1.12,51.5412764,-0.0141341
2026-06-18T10:46:33.431775,-0.09,-0.13,-1.35,51.5412764,-0.0141341
2026-06-18T10:46:33.488742,+0.12,-0.30,-1.06,51.5412764,-0.0141341
2026-06-18T10:46:33.548917,+0.19,-0.36,-0.81,51.5412764,-0.0141341
2026-06-18T10:46:33.609189,+0.01,-0.09,-1.06,51.5412764,-0.0141341
2026-06-18T10:46:33.703289,+0.21,-0.35,-0.99,51.5412764,-0.0141341
2026-06-18T10:46:33.762585,+0.06,-0.08,-1.20,51.5412764,-0.0141341
2026-06-18T10:46:33.820976,-0.02,-0.13,-1.41,51.5412556,-0.0141686
2026-06-18T10:46:33.882379,+0.26,-0.35,-0.74,51.5412556,-0.0141686
2026-06-18T10:46:33.942775,+0.26,-0.21,-0.75,51.5412556,-0.0141686
2026-06-18T10:46:34.029741,+0.02,-0.13,-1.12,51.5412556,-0.0141686
2026-06-18T10:46:34.091012,+0.32,-0.42,-0.50,51.5412556,-0.0141686
2026-06-18T10:46:34.150307,-0.09,-0.01,-1.63,51.5412556,-0.0141686
2026-06-18T10:46:34.208444,+0.27,-0.08,-0.95,51.5412556,-0.0141686
2026-06-18T10:46:34.270702,+0.17,-0.33,-0.56,51.5412556,-0.0141686
2026-06-18T10:46:34.364498,-0.01,-0.23,-1.02,51.5412556,-0.0141686
2026-06-18T10:46:34.418411,+0.08,-0.31,-0.93,51.5412556,-0.0141686
2026-06-18T10:46:34.480792,+0.09,-0.17,-0.92,51.5412556,-0.0141686
2026-06-18T10:46:34.542954,+0.11,-0.28,-0.97,51.5412556,-0.0141686
2026-06-18T10:46:34.600373,+0.21,-0.31,-0.68,51.5412556,-0.0141686
2026-06-18T10:46:34.686296,+0.05,-0.11,-0.98,51.5412556,-0.0141686
2026-06-18T10:46:34.753370,+0.08,-0.22,-1.05,51.5412556,-0.0141686
2026-06-18T10:46:34.807850,-0.01,-0.28,-1.26,51.5412369,-0.0142013
2026-06-18T10:46:34.870915,+0.13,-0.22,-0.71,51.5412369,-0.0142013
2026-06-18T10:46:34.963439,+0.11,-0.09,-0.83,51.5412369,-0.0142013
2026-06-18T10:46:35.020555,+0.07,-0.20,-0.98,51.5412369,-0.0142013
2026-06-18T10:46:35.081892,+0.20,-0.26,-0.86,51.5412369,-0.0142013
2026-06-18T10:46:35.138848,+0.13,-0.22,-1.01,51.5412369,-0.0142013
2026-06-18T10:46:35.201364,+0.17,-0.17,-0.94,51.5412369,-0.0142013
2026-06-18T10:46:35.288492,+0.13,-0.30,-0.74,51.5412369,-0.0142013
2026-06-18T10:46:35.352166,+0.10,-0.08,-1.03,51.5412369,-0.0142013
2026-06-18T10:46:35.410199,+0.19,-0.24,-0.92,51.5412369,-0.0142013
2026-06-18T10:46:35.467771,+0.16,-0.30,-0.82,51.5412369,-0.0142013
2026-06-18T10:46:35.529356,+0.20,-0.09,-0.89,51.5412369,-0.0142013
2026-06-18T10:46:35.623783,-0.04,-0.13,-1.16,51.5412369,-0.0142013
2026-06-18T10:46:35.680054,+0.05,-0.15,-0.67,51.5412369,-0.0142013
2026-06-18T10:46:35.742202,+0.14,-0.38,-0.98,51.5412369,-0.0142013
2026-06-18T10:46:35.796363,+0.17,-0.17,-0.93,51.5412173,-0.0142355
2026-06-18T10:46:35.857698,+0.12,-0.20,-0.85,51.5412173,-0.0142355
2026-06-18T10:46:35.952831,+0.15,-0.27,-0.97,51.5412173,-0.0142355
2026-06-18T10:46:36.010704,+0.14,-0.18,-1.05,51.5412173,-0.0142355
2026-06-18T10:46:36.069357,+0.02,-0.25,-0.96,51.5412173,-0.0142355
2026-06-18T10:46:36.128407,+0.13,-0.39,-0.87,51.5412173,-0.0142355
2026-06-18T10:46:36.221652,+0.09,-0.23,-0.82,51.5412173,-0.0142355
2026-06-18T10:46:36.281446,+0.12,-0.33,-0.86,51.5412173,-0.0142355
2026-06-18T10:46:36.342373,+0.11,-0.21,-0.59,51.5412173,-0.0142355
2026-06-18T10:46:36.400076,-0.02,-0.06,-1.21,51.5412173,-0.0142355
2026-06-18T10:46:36.459161,+0.06,-0.28,-1.13,51.5412173,-0.0142355
2026-06-18T10:46:36.522041,+0.19,-0.34,-0.74,51.5412173,-0.0142355
2026-06-18T10:46:36.608550,+0.14,-0.27,-0.90,51.5412173,-0.0142355
2026-06-18T10:46:36.669258,+0.10,-0.35,-1.37,51.5412173,-0.0142355
2026-06-18T10:46:36.729742,+0.13,-0.18,-0.94,51.5412173,-0.0142355
2026-06-18T10:46:36.789204,+0.17,-0.27,-1.06,51.5412173,-0.0142355
2026-06-18T10:46:36.881822,+0.12,-0.22,-1.18,51.5412009,-0.0142688
2026-06-18T10:46:36.937933,+0.26,-0.38,-0.85,51.5412009,-0.0142688
2026-06-18T10:46:37.001801,-0.01,-0.15,-1.23,51.5412009,-0.0142688
2026-06-18T10:46:37.061962,-0.06,-0.11,-1.10,51.5412009,-0.0142688
2026-06-18T10:46:37.122403,+0.11,-0.37,-0.77,51.5412009,-0.0142688
2026-06-18T10:46:37.210630,+0.08,-0.16,-0.80,51.5412009,-0.0142688
2026-06-18T10:46:37.268273,+0.12,-0.29,-0.80,51.5412009,-0.0142688
2026-06-18T10:46:37.332654,+0.21,-0.34,-0.82,51.5412009,-0.0142688
2026-06-18T10:46:37.387328,+0.06,-0.24,-0.94,51.5412009,-0.0142688
2026-06-18T10:46:37.451077,+0.03,-0.16,-0.97,51.5412009,-0.0142688
2026-06-18T10:46:37.539545,+0.24,-0.41,-0.42,51.5412009,-0.0142688
2026-06-18T10:46:37.599979,-0.02,-0.08,-0.87,51.5412009,-0.0142688
2026-06-18T10:46:37.657587,+0.11,-0.20,-1.04,51.5412009,-0.0142688
2026-06-18T10:46:37.720479,+0.10,-0.23,-0.99,51.5412009,-0.0142688
2026-06-18T10:46:37.776695,+0.13,-0.23,-0.88,51.5412009,-0.0142688
2026-06-18T10:46:37.871295,+0.08,-0.08,-0.84,51.5411824,-0.0143054
2026-06-18T10:46:37.929424,+0.07,-0.15,-0.88,51.5411824,-0.0143054
2026-06-18T10:46:37.993019,+0.13,-0.20,-1.08,51.5411824,-0.0143054
2026-06-18T10:46:38.049368,+0.17,-0.27,-0.82,51.5411824,-0.0143054
2026-06-18T10:46:38.112910,+0.17,-0.15,-0.85,51.5411824,-0.0143054
2026-06-18T10:46:38.200334,+0.11,-0.30,-1.00,51.5411824,-0.0143054
2026-06-18T10:46:38.259995,-0.02,-0.15,-1.03,51.5411824,-0.0143054
2026-06-18T10:46:38.320973,+0.01,-0.16,-1.06,51.5411824,-0.0143054
2026-06-18T10:46:38.382335,+0.03,-0.20,-1.00,51.5411824,-0.0143054
2026-06-18T10:46:38.440784,+0.07,-0.24,-0.90,51.5411824,-0.0143054
2026-06-18T10:46:38.531035,+0.05,-0.19,-1.10,51.5411824,-0.0143054
2026-06-18T10:46:38.591441,+0.13,-0.24,-0.95,51.5411824,-0.0143054
2026-06-18T10:46:38.651690,+0.00,-0.18,-1.09,51.5411824,-0.0143054
2026-06-18T10:46:38.708402,+0.09,-0.32,-0.92,51.5411824,-0.0143054
2026-06-18T10:46:38.800372,+0.06,-0.17,-0.99,51.5411632,-0.014342
2026-06-18T10:46:38.859080,+0.13,-0.26,-0.90,51.5411632,-0.014342
2026-06-18T10:46:38.919618,+0.13,-0.21,-0.87,51.5411632,-0.014342
2026-06-18T10:46:38.981329,+0.05,-0.15,-0.93,51.5411632,-0.014342
2026-06-18T10:46:39.069892,+0.08,-0.20,-1.03,51.5411632,-0.014342
2026-06-18T10:46:39.129982,+0.06,-0.24,-0.97,51.5411632,-0.014342
2026-06-18T10:46:39.189156,+0.07,-0.23,-0.89,51.5411632,-0.014342
2026-06-18T10:46:39.252407,+0.02,-0.11,-1.04,51.5411632,-0.014342
2026-06-18T10:46:39.308601,+0.10,-0.22,-1.04,51.5411632,-0.014342
2026-06-18T10:46:39.400971,+0.07,-0.16,-0.96,51.5411632,-0.014342
2026-06-18T10:46:39.461825,+0.06,-0.17,-1.01,51.5411632,-0.014342
2026-06-18T10:46:39.522399,+0.12,-0.22,-0.83,51.5411632,-0.014342
2026-06-18T10:46:39.580050,+0.08,-0.20,-1.02,51.5411632,-0.014342
2026-06-18T10:46:39.641621,+0.02,-0.21,-1.10,51.5411632,-0.014342
2026-06-18T10:46:39.728499,+0.09,-0.22,-1.01,51.5411632,-0.014342
2026-06-18T10:46:39.789569,+0.01,-0.19,-1.08,51.5411458,-0.0143769
2026-06-18T10:46:39.847527,+0.13,-0.22,-0.91,51.5411458,-0.0143769
2026-06-18T10:46:39.909412,+0.09,-0.19,-0.96,51.5411458,-0.0143769
2026-06-18T10:46:39.969976,+0.03,-0.17,-1.01,51.5411458,-0.0143769
2026-06-18T10:46:40.059379,+0.14,-0.21,-0.97,51.5411458,-0.0143769
2026-06-18T10:46:40.120707,+0.09,-0.21,-0.96,51.5411458,-0.0143769
2026-06-18T10:46:40.180014,+0.10,-0.18,-0.99,51.5411458,-0.0143769
2026-06-18T10:46:40.241011,+0.05,-0.17,-0.96,51.5411458,-0.0143769
2026-06-18T10:46:40.301486,+0.08,-0.16,-1.03,51.5411458,-0.0143769
2026-06-18T10:46:40.387554,+0.08,-0.16,-0.99,51.5411458,-0.0143769
2026-06-18T10:46:40.449960,+0.06,-0.11,-0.98,51.5411458,-0.0143769
2026-06-18T10:46:40.509834,+0.07,-0.19,-0.91,51.5411458,-0.0143769
2026-06-18T10:46:40.570581,+0.03,-0.19,-0.98,51.5411458,-0.0143769
2026-06-18T10:46:40.629448,+0.13,-0.19,-0.74,51.5411458,-0.0143769
2026-06-18T10:46:40.721503,+0.09,-0.20,-1.14,51.5411458,-0.0143769
2026-06-18T10:46:40.776640,+0.01,-0.14,-0.97,51.5411458,-0.0143769
2026-06-18T10:46:40.847575,+0.10,-0.04,-0.92,51.5411293,-0.0144047
2026-06-18T10:46:40.898985,+0.08,-0.23,-0.91,51.5411293,-0.0144047
2026-06-18T10:46:40.988796,+0.02,-0.17,-1.03,51.5411293,-0.0144047
2026-06-18T10:46:41.049,+0.04,-0.22,-0.97,51.5411293,-0.0144047
2026-06-18T10:46:41.110241,+0.13,-0.21,-0.87,51.5411293,-0.0144047
2026-06-18T10:46:41.167609,+0.00,-0.12,-1.18,51.5411293,-0.0144047
2026-06-18T10:46:41.228377,-0.01,-0.12,-1.01,51.5411293,-0.0144047
2026-06-18T10:46:41.322836,+0.06,-0.20,-0.95,51.5411293,-0.0144047
2026-06-18T10:46:41.378422,-0.01,-0.06,-0.81,51.5411293,-0.0144047
2026-06-18T10:46:41.442478,+0.01,-0.13,-0.92,51.5411293,-0.0144047
2026-06-18T10:46:41.499369,-0.03,-0.13,-0.96,51.5411293,-0.0144047
2026-06-18T10:46:41.561720,+0.06,-0.20,-1.00,51.5411293,-0.0144047
2026-06-18T10:46:41.650427,+0.01,-0.11,-0.97,51.5411293,-0.0144047
2026-06-18T10:46:41.709612,+0.01,-0.15,-1.04,51.5411293,-0.0144047
2026-06-18T10:46:41.768020,+0.01,-0.17,-0.97,51.5411293,-0.0144047
2026-06-18T10:46:41.827521,+0.02,-0.17,-0.98,51.541116,-0.0144261
2026-06-18T10:46:41.889775,+0.05,-0.16,-1.01,51.541116,-0.0144261
2026-06-18T10:46:41.978074,+0.02,-0.16,-0.98,51.541116,-0.0144261
2026-06-18T10:46:42.043628,-0.03,-0.17,-1.04,51.541116,-0.0144261
2026-06-18T10:46:42.101761,+0.09,-0.12,-0.97,51.541116,-0.0144261
2026-06-18T10:46:42.161748,+0.08,-0.12,-1.02,51.541116,-0.0144261
2026-06-18T10:46:42.220605,-0.04,-0.10,-0.95,51.541116,-0.0144261
2026-06-18T10:46:42.310870,-0.02,-0.18,-0.98,51.541116,-0.0144261
2026-06-18T10:46:42.369955,+0.14,-0.14,-0.95,51.541116,-0.0144261
2026-06-18T10:46:42.429500,+0.06,-0.02,-1.02,51.541116,-0.0144261
2026-06-18T10:46:42.491472,+0.09,-0.15,-0.95,51.541116,-0.0144261
2026-06-18T10:46:42.548394,+0.10,-0.18,-0.95,51.541116,-0.0144261
2026-06-18T10:46:42.640657,+0.05,-0.14,-1.00,51.541116,-0.0144261
2026-06-18T10:46:42.698627,+0.05,-0.11,-0.97,51.541116,-0.0144261
2026-06-18T10:46:42.760690,+0.14,+0.05,-1.01,51.541116,-0.0144261
2026-06-18T10:46:42.819239,+0.07,-0.01,-0.96,51.5411071,-0.0144388
