Timestamp,Acc_X,Acc_Y,Acc_Z,Latitude,Longitude
2026-06-18T10:04:18.161881,+0.17,-0.06,-1.00,51.5386824,-0.0090669
2026-06-18T10:04:18.222013,+0.22,-0.03,-0.91,51.5386824,-0.0090669
2026-06-18T10:04:18.279804,+0.29,-0.14,-1.02,51.5386824,-0.0090669
2026-06-18T10:04:18.343575,+0.17,-0.09,-0.96,51.5386824,-0.0090669
2026-06-18T10:04:18.429723,+0.22,-0.08,-1.00,51.5386824,-0.0090669
2026-06-18T10:04:18.492101,+0.25,-0.11,-0.98,51.5386824,-0.0090669
2026-06-18T10:04:18.552153,+0.24,-0.05,-0.97,51.5386824,-0.0090669
2026-06-18T10:04:18.610442,+0.19,-0.09,-0.98,51.5386824,-0.0090669
2026-06-18T10:04:18.672201,+0.23,-0.06,-0.99,51.5386824,-0.0090669
2026-06-18T10:04:18.761225,+0.16,-0.10,-0.99,51.5386824,-0.0090669
2026-06-18T10:04:18.819029,+0.17,-0.12,-0.98,51.5386831,-0.0090673
2026-06-18T10:04:18.885982,+0.14,-0.11,-0.98,51.5386831,-0.0090673
2026-06-18T10:04:18.939848,+0.19,-0.13,-0.98,51.5386831,-0.0090673
2026-06-18T10:04:18.998962,+0.18,-0.12,-0.98,51.5386831,-0.0090673
2026-06-18T10:04:19.090788,+0.17,-0.10,-0.99,51.5386831,-0.0090673
2026-06-18T10:04:19.150116,+0.15,-0.12,-0.98,51.5386831,-0.0090673
2026-06-18T10:04:19.208742,+0.17,-0.11,-0.98,51.5386831,-0.0090673
2026-06-18T10:04:19.269753,+0.18,-0.11,-0.98,51.5386831,-0.0090673
2026-06-18T10:04:19.329950,+0.12,-0.15,-0.98,51.5386831,-0.0090673
2026-06-18T10:04:19.420361,+0.13,-0.14,-0.98,51.5386831,-0.0090673
2026-06-18T10:04:19.479106,+0.16,-0.13,-0.98,51.5386831,-0.0090673
2026-06-18T10:04:19.541543,+0.17,-0.12,-0.98,51.5386831,-0.0090673
2026-06-18T10:04:19.599805,+0.19,-0.11,-0.98,51.5386831,-0.0090673
2026-06-18T10:04:19.660975,+0.25,-0.08,-0.98,51.5386831,-0.0090673
2026-06-18T10:04:19.756658,+0.19,-0.12,-0.98,51.5386831,-0.0090673
2026-06-18T10:04:19.811043,+0.07,-0.20,-0.97,51.5386822,-0.0090607
2026-06-18T10:04:19.871184,+0.12,-0.15,-0.98,51.5386822,-0.0090607
2026-06-18T10:04:19.930154,+0.17,-0.11,-0.99,51.5386822,-0.0090607
2026-06-18T10:04:19.990664,+0.18,-0.10,-0.99,51.5386822,-0.0090607
2026-06-18T10:04:20.080950,+0.16,-0.12,-0.99,51.5386822,-0.0090607
2026-06-18T10:04:20.141562,+0.14,-0.14,-0.98,51.5386822,-0.0090607
2026-06-18T10:04:20.201612,+0.14,-0.13,-0.98,51.5386822,-0.0090607
2026-06-18T10:04:20.261686,+0.16,-0.13,-0.98,51.5386822,-0.0090607
2026-06-18T10:04:20.321062,+0.16,-0.13,-0.98,51.5386822,-0.0090607
2026-06-18T10:04:20.411291,+0.14,-0.15,-0.97,51.5386822,-0.0090607
2026-06-18T10:04:20.469964,+0.14,-0.15,-0.99,51.5386822,-0.0090607
2026-06-18T10:04:20.531488,+0.14,-0.14,-0.98,51.5386822,-0.0090607
2026-06-18T10:04:20.591118,+0.14,-0.13,-0.98,51.5386822,-0.0090607
2026-06-18T10:04:20.679638,+0.14,-0.13,-0.98,51.5386822,-0.0090607
2026-06-18T10:04:20.739350,+0.15,-0.11,-0.99,51.5386822,-0.0090607
2026-06-18T10:04:20.802691,+0.13,-0.12,-0.98,51.5386822,-0.0090526
2026-06-18T10:04:20.862055,+0.15,-0.11,-0.99,51.5386822,-0.0090526
2026-06-18T10:04:20.921488,+0.16,-0.14,-0.98,51.5386822,-0.0090526
2026-06-18T10:04:21.010727,+0.11,-0.18,-0.97,51.5386822,-0.0090526
2026-06-18T10:04:21.071451,+0.06,-0.19,-0.97,51.5386822,-0.0090526
2026-06-18T10:04:21.131592,+0.12,-0.12,-0.98,51.5386822,-0.0090526
2026-06-18T10:04:21.190795,+0.21,-0.01,-0.98,51.5386822,-0.0090526
2026-06-18T10:04:21.250927,+0.27,+0.02,-1.01,51.5386822,-0.0090526
2026-06-18T10:04:21.340691,+0.29,-0.03,-0.99,51.5386822,-0.0090526
2026-06-18T10:04:21.401922,+0.35,-0.07,-0.96,51.5386822,-0.0090526
2026-06-18T10:04:21.458360,+0.39,-0.06,-0.96,51.5386822,-0.0090526
2026-06-18T10:04:21.518738,+0.32,-0.08,-0.96,51.5386822,-0.0090526
2026-06-18T10:04:21.580343,+0.27,-0.06,-0.96,51.5386822,-0.0090526
2026-06-18T10:04:21.671308,+0.32,-0.13,-1.12,51.5386822,-0.0090526
2026-06-18T10:04:21.730618,+0.21,+0.03,-1.10,51.5386822,-0.0090526
2026-06-18T10:04:21.789480,+0.24,-0.13,-0.96,51.5386822,-0.0090526
2026-06-18T10:04:21.850815,+0.26,-0.24,-0.92,51.5386793,-0.0090476
2026-06-18T10:04:21.912333,+0.14,-0.24,-0.94,51.5386793,-0.0090476
2026-06-18T10:04:22.004186,+0.19,-0.14,-1.01,51.5386793,-0.0090476
2026-06-18T10:04:22.060295,+0.31,-0.27,-0.94,51.5386793,-0.0090476
2026-06-18T10:04:22.125557,+0.36,-0.25,-0.91,51.5386793,-0.0090476
2026-06-18T10:04:22.179780,+0.33,-0.18,-0.97,51.5386793,-0.0090476
2026-06-18T10:04:22.270878,+0.29,-0.15,-0.96,51.5386793,-0.0090476
2026-06-18T10:04:22.332066,+0.25,-0.22,-0.94,51.5386793,-0.0090476
2026-06-18T10:04:22.391818,+0.31,-0.31,-0.93,51.5386793,-0.0090476
2026-06-18T10:04:22.449971,+0.28,-0.34,-0.93,51.5386793,-0.0090476
2026-06-18T10:04:22.509580,+0.00,-0.51,-0.91,51.5386793,-0.0090476
2026-06-18T10:04:22.602258,+0.23,-0.05,-0.92,51.5386793,-0.0090476
2026-06-18T10:04:22.660469,+0.23,+0.25,-1.16,51.5386793,-0.0090476
2026-06-18T10:04:22.722088,-0.04,-0.15,-1.08,51.5386793,-0.0090476
2026-06-18T10:04:22.786552,+0.04,-0.31,-0.94,51.5386793,-0.0090476
2026-06-18T10:04:22.841662,+0.26,-0.15,-0.90,51.5386775,-0.0090456
2026-06-18T10:04:22.930723,+0.12,-0.15,-0.99,51.5386775,-0.0090456
2026-06-18T10:04:22.990545,+0.15,-0.28,-1.01,51.5386775,-0.0090456
2026-06-18T10:04:23.050880,+0.22,-0.16,-0.97,51.5386775,-0.0090456
2026-06-18T10:04:23.110769,+0.14,+0.02,-1.00,51.5386775,-0.0090456
2026-06-18T10:04:23.170980,+0.11,-0.17,-0.92,51.5386775,-0.0090456
2026-06-18T10:04:23.260695,+0.09,-0.19,-0.96,51.5386775,-0.0090456
2026-06-18T10:04:23.322953,+0.20,-0.14,-0.94,51.5386775,-0.0090456
2026-06-18T10:04:23.383809,+0.04,-0.11,-0.96,51.5386775,-0.0090456
2026-06-18T10:04:23.441756,+0.24,-0.23,-0.90,51.5386775,-0.0090456
2026-06-18T10:04:23.500142,+0.15,-0.19,-0.97,51.5386775,-0.0090456
2026-06-18T10:04:23.590557,+0.12,-0.24,-0.99,51.5386775,-0.0090456
2026-06-18T10:04:23.650785,+0.08,-0.19,-0.91,51.5386775,-0.0090456
2026-06-18T10:04:23.710296,+0.17,-0.10,-0.96,51.5386775,-0.0090456
2026-06-18T10:04:23.771443,+0.22,-0.22,-0.97,51.5386775,-0.0090456
2026-06-18T10:04:23.830490,+0.20,-0.23,-0.95,51.5386873,-0.0090458
2026-06-18T10:04:23.920409,+0.16,-0.22,-0.96,51.5386873,-0.0090458
2026-06-18T10:04:23.980054,+0.11,-0.24,-0.92,51.5386873,-0.0090458
2026-06-18T10:04:24.041785,+0.16,-0.21,-0.96,51.5386873,-0.0090458
2026-06-18T10:04:24.100517,+0.15,-0.31,-0.95,51.5386873,-0.0090458
2026-06-18T10:04:24.160854,+0.14,-0.24,-0.95,51.5386873,-0.0090458
2026-06-18T10:04:24.250395,+0.20,-0.22,-0.99,51.5386873,-0.0090458
2026-06-18T10:04:24.314684,+0.12,-0.27,-0.96,51.5386873,-0.0090458
2026-06-18T10:04:24.370468,+0.13,-0.18,-1.05,51.5386873,-0.0090458
2026-06-18T10:04:24.430220,+0.11,-0.25,-0.97,51.5386873,-0.0090458
2026-06-18T10:04:24.520605,+0.10,-0.21,-0.97,51.5386873,-0.0090458
2026-06-18T10:04:24.581473,+0.13,-0.24,-1.00,51.5386873,-0.0090458
2026-06-18T10:04:24.641387,+0.21,-0.13,-0.96,51.5386873,-0.0090458
2026-06-18T10:04:24.702898,+0.15,-0.17,-0.96,51.5386873,-0.0090458
2026-06-18T10:04:24.759901,+0.19,-0.15,-0.94,51.5386873,-0.0090458
2026-06-18T10:04:24.848275,+0.17,-0.22,-0.92,51.5386963,-0.0090621
2026-06-18T10:04:24.910831,+0.15,-0.24,-1.00,51.5386963,-0.0090621
2026-06-18T10:04:24.971273,+0.16,-0.31,-0.99,51.5386963,-0.0090621
2026-06-18T10:04:25.030352,+0.21,-0.20,-0.79,51.5386963,-0.0090621
2026-06-18T10:04:25.092898,+0.02,-0.31,-1.01,51.5386963,-0.0090621
2026-06-18T10:04:25.179963,+0.12,-0.29,-0.93,51.5386963,-0.0090621
2026-06-18T10:04:25.270549,+0.28,-0.18,-0.94,51.5386963,-0.0090621
2026-06-18T10:04:25.300596,+0.14,-0.20,-1.05,51.5386963,-0.0090621
2026-06-18T10:04:25.360137,+0.16,-0.10,-0.99,51.5386963,-0.0090621
2026-06-18T10:04:25.420053,+0.11,-0.18,-0.95,51.5386963,-0.0090621
2026-06-18T10:04:25.511010,+0.07,-0.30,-0.93,51.5386963,-0.0090621
2026-06-18T10:04:25.572069,+0.16,-0.18,-0.96,51.5386963,-0.0090621
2026-06-18T10:04:25.630613,+0.18,-0.04,-1.05,51.5386963,-0.0090621
2026-06-18T10:04:25.695072,+0.18,-0.11,-0.98,51.5386963,-0.0090621
2026-06-18T10:04:25.755525,+0.10,-0.20,-0.97,51.5386963,-0.0090621
2026-06-18T10:04:25.839983,+0.09,-0.18,-0.96,51.5387034,-0.0090891
2026-06-18T10:04:25.900510,+0.12,-0.22,-1.01,51.5387034,-0.0090891
2026-06-18T10:04:25.959900,+0.10,-0.18,-0.95,51.5387034,-0.0090891
2026-06-18T10:04:26.021359,+0.36,-0.12,-0.85,51.5387034,-0.0090891
2026-06-18T10:04:26.081675,+0.06,-0.15,-1.07,51.5387034,-0.0090891
2026-06-18T10:04:26.171523,+0.04,-0.25,-0.99,51.5387034,-0.0090891
2026-06-18T10:04:26.232720,+0.27,-0.27,-0.89,51.5387034,-0.0090891
2026-06-18T10:04:26.291726,+0.15,-0.07,-1.00,51.5387034,-0.0090891
2026-06-18T10:04:26.350448,+0.19,-0.12,-1.05,51.5387034,-0.0090891
2026-06-18T10:04:26.409224,+0.19,-0.11,-1.01,51.5387034,-0.0090891
2026-06-18T10:04:26.501729,+0.08,-0.23,-1.05,51.5387034,-0.0090891
2026-06-18T10:04:26.559552,+0.13,-0.22,-1.01,51.5387034,-0.0090891
2026-06-18T10:04:26.620363,-0.12,+0.11,-0.55,51.5387034,-0.0090891
2026-06-18T10:04:26.710083,+0.16,-0.01,-1.06,51.5387034,-0.0090891
2026-06-18T10:04:26.770167,+0.42,-0.54,-0.69,51.5387034,-0.0090891
2026-06-18T10:04:26.833223,+0.14,-0.32,-0.73,51.5387163,-0.0091095
2026-06-18T10:04:26.890877,-0.13,-0.13,-0.89,51.5387163,-0.0091095
2026-06-18T10:04:26.951520,+0.05,+0.15,-1.21,51.5387163,-0.0091095
2026-06-18T10:04:27.040601,+0.12,-0.25,-0.98,51.5387163,-0.0091095
2026-06-18T10:04:27.100007,+0.03,-0.14,-0.15,51.5387163,-0.0091095
2026-06-18T10:04:27.161585,+0.20,+1.10,-1.59,51.5387163,-0.0091095
2026-06-18T10:04:27.219128,-0.47,+0.31,-0.74,51.5387163,-0.0091095
2026-06-18T10:04:27.280767,+0.39,-0.49,-1.07,51.5387163,-0.0091095
2026-06-18T10:04:27.369291,+0.24,-0.40,-1.07,51.5387163,-0.0091095
2026-06-18T10:04:27.429869,+0.07,-0.23,-0.74,51.5387163,-0.0091095
2026-06-18T10:04:27.489352,-0.06,+0.06,-1.28,51.5387163,-0.0091095
2026-06-18T10:04:27.552232,-0.06,-0.06,-1.16,51.5387163,-0.0091095
2026-06-18T10:04:27.609798,+0.30,-0.39,-0.77,51.5387163,-0.0091095
2026-06-18T10:04:27.700225,+0.22,-0.27,-0.93,51.5387163,-0.0091095
2026-06-18T10:04:27.760538,-0.14,-0.32,-1.01,51.5387163,-0.0091095
2026-06-18T10:04:27.819541,-0.01,-0.02,-1.07,51.5387314,-0.009118
2026-06-18T10:04:27.880674,+0.08,-0.36,-0.88,51.5387314,-0.009118
2026-06-18T10:04:27.942229,+0.24,-0.32,-0.86,51.5387314,-0.009118
2026-06-18T10:04:28.030862,+0.15,-0.11,-1.00,51.5387314,-0.009118
2026-06-18T10:04:28.094122,+0.06,-0.04,-1.02,51.5387314,-0.009118
2026-06-18T10:04:28.152143,+0.01,-0.37,-0.90,51.5387314,-0.009118
2026-06-18T10:04:28.210789,+0.16,-0.33,-0.84,51.5387314,-0.009118
2026-06-18T10:04:28.271047,+0.20,-0.23,-1.00,51.5387314,-0.009118
2026-06-18T10:04:28.362988,+0.03,-0.18,-1.06,51.5387314,-0.009118
2026-06-18T10:04:28.421658,+0.16,-0.20,-1.04,51.5387314,-0.009118
2026-06-18T10:04:28.482610,+0.11,-0.41,-0.77,51.5387314,-0.009118
2026-06-18T10:04:28.545396,+0.10,-0.23,-0.96,51.5387314,-0.009118
2026-06-18T10:04:28.600444,+0.06,-0.17,-0.99,51.5387314,-0.009118
2026-06-18T10:04:28.690565,+0.22,-0.22,-0.80,51.5387314,-0.009118
2026-06-18T10:04:28.755404,+0.08,-0.16,-0.96,51.5387314,-0.009118
2026-06-18T10:04:28.811251,+0.23,-0.14,-0.97,51.5387485,-0.0091256
2026-06-18T10:04:28.870179,+0.26,-0.14,-0.93,51.5387485,-0.0091256
2026-06-18T10:04:28.960860,+0.18,-0.23,-0.84,51.5387485,-0.0091256
2026-06-18T10:04:29.021004,+0.12,-0.22,-0.92,51.5387485,-0.0091256
2026-06-18T10:04:29.082881,+0.14,-0.17,-0.96,51.5387485,-0.0091256
2026-06-18T10:04:29.141530,+0.19,-0.36,-0.88,51.5387485,-0.0091256
2026-06-18T10:04:29.202961,+0.00,-0.27,-1.11,51.5387485,-0.0091256
2026-06-18T10:04:29.292297,+0.16,-0.11,-1.01,51.5387485,-0.0091256
2026-06-18T10:04:29.350966,+0.29,-0.22,-0.84,51.5387485,-0.0091256
2026-06-18T10:04:29.410522,+0.18,-0.21,-1.13,51.5387485,-0.0091256
2026-06-18T10:04:29.471403,+0.11,-0.12,-1.12,51.5387485,-0.0091256
2026-06-18T10:04:29.531245,+0.13,-0.20,-0.79,51.5387485,-0.0091256
2026-06-18T10:04:29.621499,+0.14,-0.28,-0.90,51.5387485,-0.0091256
2026-06-18T10:04:29.681351,+0.18,-0.10,-1.00,51.5387485,-0.0091256
2026-06-18T10:04:29.743595,+0.03,-0.21,-1.01,51.5387485,-0.0091256
2026-06-18T10:04:29.801559,+0.04,-0.29,-1.12,51.5387485,-0.0091256
2026-06-18T10:04:29.860721,+0.08,-0.33,-0.88,51.5387644,-0.0091492
2026-06-18T10:04:29.951859,+0.15,-0.20,-1.56,51.5387644,-0.0091492
2026-06-18T10:04:30.010359,+0.05,-0.18,-0.72,51.5387644,-0.0091492
2026-06-18T10:04:30.072032,+0.14,-0.12,-1.35,51.5387644,-0.0091492
2026-06-18T10:04:30.130543,+0.44,-0.37,-0.11,51.5387644,-0.0091492
2026-06-18T10:04:30.191286,+0.19,+0.17,-0.82,51.5387644,-0.0091492
2026-06-18T10:04:30.282478,+0.20,-0.31,-1.20,51.5387644,-0.0091492
2026-06-18T10:04:30.341413,+0.02,+0.16,-0.92,51.5387644,-0.0091492
2026-06-18T10:04:30.401884,+0.22,-0.32,-0.83,51.5387644,-0.0091492
2026-06-18T10:04:30.460556,+0.24,-0.32,-0.87,51.5387644,-0.0091492
2026-06-18T10:04:30.521291,+0.21,-0.41,-1.06,51.5387644,-0.0091492
2026-06-18T10:04:30.609918,+0.09,-0.19,-1.18,51.5387644,-0.0091492
2026-06-18T10:04:30.672046,+0.30,-0.32,-0.85,51.5387644,-0.0091492
2026-06-18T10:04:30.730487,+0.35,-0.37,-0.76,51.5387644,-0.0091492
2026-06-18T10:04:30.790266,+0.04,+0.01,-0.82,51.5387644,-0.0091492
2026-06-18T10:04:30.880086,+0.17,-0.30,-0.99,51.5387799,-0.0091812
2026-06-18T10:04:30.940624,+0.07,-0.29,-0.92,51.5387799,-0.0091812
2026-06-18T10:04:30.999955,+0.10,-0.12,-0.99,51.5387799,-0.0091812
2026-06-18T10:04:31.060461,+0.08,-0.38,-0.99,51.5387799,-0.0091812
2026-06-18T10:04:31.120528,+0.20,-0.20,-0.90,51.5387799,-0.0091812
2026-06-18T10:04:31.212227,+0.08,-0.14,-0.98,51.5387799,-0.0091812
2026-06-18T10:04:31.271429,+0.09,-0.11,-1.06,51.5387799,-0.0091812
2026-06-18T10:04:31.331248,+0.17,-0.25,-0.86,51.5387799,-0.0091812
2026-06-18T10:04:31.398647,+0.16,-0.25,-0.98,51.5387799,-0.0091812
2026-06-18T10:04:31.451253,+0.10,-0.15,-0.87,51.5387799,-0.0091812
2026-06-18T10:04:31.540657,+0.13,-0.27,-1.13,51.5387799,-0.0091812
2026-06-18T10:04:31.604352,+0.12,-0.16,-1.09,51.5387799,-0.0091812
2026-06-18T10:04:31.660488,+0.14,-0.12,-0.87,51.5387799,-0.0091812
2026-06-18T10:04:31.719791,+0.19,-0.24,-0.97,51.5387799,-0.0091812
2026-06-18T10:04:31.781857,+0.16,-0.14,-0.91,51.5387799,-0.0091812
2026-06-18T10:04:31.870421,+0.10,-0.19,-0.81,51.5387904,-0.0092183
2026-06-18T10:04:31.931643,+0.09,-0.15,-0.94,51.5387904,-0.0092183
2026-06-18T10:04:31.989852,+0.12,-0.14,-1.08,51.5387904,-0.0092183
2026-06-18T10:04:32.051453,+0.18,-0.25,-1.13,51.5387904,-0.0092183
2026-06-18T10:04:32.114385,+0.17,-0.19,-0.97,51.5387904,-0.0092183
2026-06-18T10:04:32.201734,+0.15,-0.21,-0.82,51.5387904,-0.0092183
2026-06-18T10:04:32.260949,+0.19,-0.21,-0.71,51.5387904,-0.0092183
2026-06-18T10:04:32.321394,+0.26,-0.24,-0.59,51.5387904,-0.0092183
2026-06-18T10:04:32.379813,+0.03,-0.10,-0.89,51.5387904,-0.0092183
2026-06-18T10:04:32.440240,+0.10,-0.21,-0.92,51.5387904,-0.0092183
2026-06-18T10:04:32.530208,+0.02,-0.20,-0.92,51.5387904,-0.0092183
2026-06-18T10:04:32.591040,-0.01,-0.07,-1.07,51.5387904,-0.0092183
2026-06-18T10:04:32.649558,+0.13,-0.19,-0.72,51.5387904,-0.0092183
2026-06-18T10:04:32.711004,+0.14,-0.19,-1.07,51.5387904,-0.0092183
2026-06-18T10:04:32.801324,+0.03,-0.12,-1.14,51.5388038,-0.0092567
2026-06-18T10:04:32.859549,+0.02,-0.18,-1.00,51.5388038,-0.0092567
2026-06-18T10:04:32.920776,+0.19,-0.30,-1.00,51.5388038,-0.0092567
2026-06-18T10:04:32.982672,+0.02,-0.13,-1.03,51.5388038,-0.0092567
2026-06-18T10:04:33.040993,+0.10,-0.18,-0.83,51.5388038,-0.0092567
2026-06-18T10:04:33.130788,+0.13,-0.27,-1.20,51.5388038,-0.0092567
2026-06-18T10:04:33.191613,+0.10,-0.23,-0.94,51.5388038,-0.0092567
2026-06-18T10:04:33.255517,+0.17,-0.16,-0.84,51.5388038,-0.0092567
2026-06-18T10:04:33.310050,+0.06,-0.23,-0.98,51.5388038,-0.0092567
2026-06-18T10:04:33.368490,+0.19,-0.21,-0.60,51.5388038,-0.0092567
2026-06-18T10:04:33.462677,+0.20,-0.28,-0.72,51.5388038,-0.0092567
2026-06-18T10:04:33.520363,+0.10,+0.11,-0.97,51.5388038,-0.0092567
2026-06-18T10:04:33.581299,+0.12,-0.32,-1.06,51.5388038,-0.0092567
2026-06-18T10:04:33.640355,+0.17,-0.10,-0.89,51.5388038,-0.0092567
2026-06-18T10:04:33.700601,-0.00,-0.15,-1.03,51.5388038,-0.0092567
2026-06-18T10:04:33.789572,+0.01,-0.05,-0.92,51.5388038,-0.0092567
2026-06-18T10:04:33.851969,+0.13,-0.03,-1.12,51.5388196,-0.0092893
2026-06-18T10:04:33.911110,+0.09,-0.07,-0.89,51.5388196,-0.0092893
2026-06-18T10:04:33.970400,+0.14,-0.24,-0.95,51.5388196,-0.0092893
2026-06-18T10:04:34.034275,+0.12,-0.26,-0.93,51.5388196,-0.0092893
2026-06-18T10:04:34.120657,+0.06,-0.07,-0.86,51.5388196,-0.0092893
2026-06-18T10:04:34.181412,+0.09,-0.22,-0.92,51.5388196,-0.0092893
2026-06-18T10:04:34.240394,+0.09,-0.19,-1.02,51.5388196,-0.0092893
2026-06-18T10:04:34.301371,-0.01,-0.06,-0.99,51.5388196,-0.0092893
2026-06-18T10:04:34.360636,+0.15,-0.13,-0.89,51.5388196,-0.0092893
2026-06-18T10:04:34.450720,+0.10,-0.16,-0.96,51.5388196,-0.0092893
2026-06-18T10:04:34.510854,+0.05,-0.07,-1.20,51.5388196,-0.0092893
2026-06-18T10:04:34.577985,+0.08,-0.22,-1.02,51.5388196,-0.0092893
2026-06-18T10:04:34.628762,+0.12,-0.28,-1.14,51.5388196,-0.0092893
2026-06-18T10:04:34.690955,+0.05,-0.22,-0.93,51.5388196,-0.0092893
2026-06-18T10:04:34.780879,+0.09,-0.09,-0.97,51.5388196,-0.0092893
2026-06-18T10:04:34.841014,+0.04,-0.27,-1.04,51.5388372,-0.0093267
2026-06-18T10:04:34.903351,+0.18,-0.33,-0.88,51.5388372,-0.0093267
2026-06-18T10:04:34.992182,-0.10,-0.07,-0.99,51.5388372,-0.0093267
2026-06-18T10:04:35.051006,+0.20,-0.22,-0.86,51.5388372,-0.0093267
2026-06-18T10:04:35.113615,+0.15,-0.18,-1.19,51.5388372,-0.0093267
2026-06-18T10:04:35.171530,+0.07,-0.16,-1.09,51.5388372,-0.0093267
2026-06-18T10:04:35.231979,+0.16,-0.19,-0.82,51.5388372,-0.0093267
2026-06-18T10:04:35.321039,+0.11,-0.18,-1.15,51.5388372,-0.0093267
2026-06-18T10:04:35.381044,+0.07,-0.23,-0.98,51.5388372,-0.0093267
2026-06-18T10:04:35.441870,+0.09,-0.22,-0.95,51.5388372,-0.0093267
2026-06-18T10:04:35.503363,+0.21,-0.39,-0.94,51.5388372,-0.0093267
2026-06-18T10:04:35.560861,+0.13,-0.15,-1.09,51.5388372,-0.0093267
2026-06-18T10:04:35.652227,+0.10,-0.12,-1.03,51.5388372,-0.0093267
2026-06-18T10:04:35.710472,+0.17,-0.33,-0.97,51.5388372,-0.0093267
2026-06-18T10:04:35.769805,+0.09,-0.21,-0.91,51.5388372,-0.0093267
2026-06-18T10:04:35.831098,+0.21,-0.27,-0.70,51.5388516,-0.0093712
2026-06-18T10:04:35.890896,+0.08,-0.24,-1.03,51.5388516,-0.0093712
2026-06-18T10:04:35.982438,+0.23,-0.34,-0.97,51.5388516,-0.0093712
2026-06-18T10:04:36.040575,-0.10,+0.03,-1.24,51.5388516,-0.0093712
2026-06-18T10:04:36.100807,+0.11,-0.15,-1.00,51.5388516,-0.0093712
2026-06-18T10:04:36.159913,+0.18,-0.37,-0.86,51.5388516,-0.0093712
2026-06-18T10:04:36.221916,+0.12,-0.13,-1.17,51.5388516,-0.0093712
2026-06-18T10:04:36.312758,+0.07,-0.07,-0.85,51.5388516,-0.0093712
2026-06-18T10:04:36.370452,+0.15,-0.26,-1.01,51.5388516,-0.0093712
2026-06-18T10:04:36.431039,+0.07,-0.13,-0.97,51.5388516,-0.0093712
2026-06-18T10:04:36.490321,+0.13,-0.17,-0.89,51.5388516,-0.0093712
2026-06-18T10:04:36.553,+0.06,-0.24,-1.07,51.5388516,-0.0093712
2026-06-18T10:04:36.641617,+0.07,-0.23,-0.97,51.5388516,-0.0093712
2026-06-18T10:04:36.701894,+0.06,-0.22,-1.04,51.5388516,-0.0093712
2026-06-18T10:04:36.760897,+0.07,-0.15,-1.02,51.5388516,-0.0093712
2026-06-18T10:04:36.819847,+0.15,-0.08,-1.11,51.538857,-0.0094226
2026-06-18T10:04:36.911802,+0.05,-0.08,-1.27,51.538857,-0.0094226
2026-06-18T10:04:36.971321,+0.07,-0.20,-0.98,51.538857,-0.0094226
2026-06-18T10:04:37.031411,+0.18,-0.23,-1.00,51.538857,-0.0094226
2026-06-18T10:04:37.091085,+0.09,-0.11,-0.96,51.538857,-0.0094226
2026-06-18T10:04:37.150604,+0.13,-0.16,-1.02,51.538857,-0.0094226
2026-06-18T10:04:37.240719,+0.08,-0.17,-0.81,51.538857,-0.0094226
2026-06-18T10:04:37.305696,+0.08,-0.19,-1.02,51.538857,-0.0094226
2026-06-18T10:04:37.361388,+0.07,-0.22,-0.91,51.538857,-0.0094226
2026-06-18T10:04:37.420370,+0.18,-0.26,-0.76,51.538857,-0.0094226
2026-06-18T10:04:37.480675,+0.12,-0.08,-0.98,51.538857,-0.0094226
2026-06-18T10:04:37.570347,+0.19,-0.28,-0.84,51.538857,-0.0094226
2026-06-18T10:04:37.629994,+0.11,-0.11,-0.65,51.538857,-0.0094226
2026-06-18T10:04:37.690068,+0.18,-0.26,-1.10,51.538857,-0.0094226
2026-06-18T10:04:37.751318,+0.07,-0.16,-1.03,51.538857,-0.0094226
2026-06-18T10:04:37.808959,+0.19,-0.29,-0.83,51.5388548,-0.0094752
2026-06-18T10:04:37.901491,+0.21,-0.27,-0.96,51.5388548,-0.0094752
2026-06-18T10:04:37.960180,+0.14,-0.29,-0.85,51.5388548,-0.0094752
2026-06-18T10:04:38.022603,+0.05,-0.06,-1.08,51.5388548,-0.0094752
2026-06-18T10:04:38.080802,+0.12,-0.17,-1.08,51.5388548,-0.0094752
2026-06-18T10:04:38.141820,+0.00,-0.26,-0.88,51.5388548,-0.0094752
2026-06-18T10:04:38.230795,+0.06,-0.13,-1.13,51.5388548,-0.0094752
2026-06-18T10:04:38.292652,+0.14,-0.21,-0.86,51.5388548,-0.0094752
2026-06-18T10:04:38.350897,+0.21,-0.17,-0.84,51.5388548,-0.0094752
2026-06-18T10:04:38.409964,+0.16,-0.17,-0.96,51.5388548,-0.0094752
2026-06-18T10:04:38.471947,+0.19,-0.22,-0.89,51.5388548,-0.0094752
2026-06-18T10:04:38.561399,+0.22,-0.26,-1.02,51.5388548,-0.0094752
2026-06-18T10:04:38.620178,+0.05,-0.10,-1.04,51.5388548,-0.0094752
2026-06-18T10:04:38.680902,+0.15,-0.17,+0.21,51.5388548,-0.0094752
2026-06-18T10:04:38.742357,+0.64,-1.08,+1.13,51.5388548,-0.0094752
2026-06-18T10:04:38.799658,+0.18,+0.06,-0.51,51.5388548,-0.0094752
2026-06-18T10:04:38.891492,+0.07,-0.35,-0.81,51.5388518,-0.0095239
2026-06-18T10:04:38.952856,+0.05,+0.00,-0.99,51.5388518,-0.0095239
2026-06-18T10:04:39.010510,+0.08,+0.04,-0.12,51.5388518,-0.0095239
2026-06-18T10:04:39.070388,-0.18,+0.39,-0.63,51.5388518,-0.0095239
2026-06-18T10:04:39.161518,+0.02,+0.09,-0.18,51.5388518,-0.0095239
2026-06-18T10:04:39.221906,+0.19,-0.41,-1.02,51.5388518,-0.0095239
2026-06-18T10:04:39.280616,-0.04,-0.44,-0.94,51.5388518,-0.0095239
2026-06-18T10:04:39.341213,+0.14,-0.01,-0.91,51.5388518,-0.0095239
2026-06-18T10:04:39.400436,+0.12,-0.03,-1.11,51.5388518,-0.0095239
2026-06-18T10:04:39.490137,+0.29,-0.41,-0.64,51.5388518,-0.0095239
2026-06-18T10:04:39.552306,+0.20,-0.25,-0.91,51.5388518,-0.0095239
2026-06-18T10:04:39.613342,+0.09,-0.25,-0.72,51.5388518,-0.0095239
2026-06-18T10:04:39.671134,-0.47,+0.28,-2.70,51.5388518,-0.0095239
2026-06-18T10:04:39.731501,-0.31,-0.19,-2.36,51.5388518,-0.0095239
2026-06-18T10:04:39.818869,+0.32,-0.03,-0.79,51.5388484,-0.0095661
2026-06-18T10:04:39.879915,-0.08,-0.35,-0.93,51.5388484,-0.0095661
2026-06-18T10:04:39.941605,+0.41,-0.46,-1.02,51.5388484,-0.0095661
2026-06-18T10:04:40.000839,+0.25,-0.26,-1.14,51.5388484,-0.0095661
2026-06-18T10:04:40.062188,-0.25,+0.20,-1.03,51.5388484,-0.0095661
2026-06-18T10:04:40.153987,+0.28,-0.77,-0.85,51.5388484,-0.0095661
2026-06-18T10:04:40.212701,+0.42,-0.06,-0.99,51.5388484,-0.0095661
2026-06-18T10:04:40.271190,-0.22,+0.11,-1.08,51.5388484,-0.0095661
2026-06-18T10:04:40.331206,+0.17,-0.43,-0.95,51.5388484,-0.0095661
2026-06-18T10:04:40.391971,+0.25,-0.45,-0.85,51.5388484,-0.0095661
2026-06-18T10:04:40.481020,+0.00,-0.09,-1.01,51.5388484,-0.0095661
2026-06-18T10:04:40.541086,+0.03,-0.17,-1.03,51.5388484,-0.0095661
2026-06-18T10:04:40.600694,-0.04,-0.08,-1.03,51.5388484,-0.0095661
2026-06-18T10:04:40.660846,+0.12,-0.15,-1.03,51.5388484,-0.0095661
2026-06-18T10:04:40.719532,+0.16,-0.29,-1.02,51.5388484,-0.0095661
2026-06-18T10:04:40.809487,+0.36,-0.34,-0.75,51.5388431,-0.0096023
2026-06-18T10:04:40.872904,-0.02,-0.11,-0.78,51.5388431,-0.0096023
2026-06-18T10:04:40.932737,+0.18,-0.02,-0.97,51.5388431,-0.0096023
2026-06-18T10:04:40.991280,+0.26,-0.43,-0.94,51.5388431,-0.0096023
2026-06-18T10:04:41.082369,+0.21,-0.28,-0.93,51.5388431,-0.0096023
2026-06-18T10:04:41.141542,+0.18,-0.22,-1.05,51.5388431,-0.0096023
2026-06-18T10:04:41.200593,+0.21,-0.40,-0.73,51.5388431,-0.0096023
2026-06-18T10:04:41.261446,+0.00,-0.14,-0.98,51.5388431,-0.0096023
2026-06-18T10:04:41.351793,+0.10,-0.25,-0.99,51.5388431,-0.0096023
2026-06-18T10:04:41.411248,+0.15,-0.23,-0.89,51.5388431,-0.0096023
2026-06-18T10:04:41.469983,+0.17,-0.38,-0.79,51.5388431,-0.0096023
2026-06-18T10:04:41.530166,+0.01,-0.23,-1.01,51.5388431,-0.0096023
2026-06-18T10:04:41.592408,+0.12,-0.18,-0.94,51.5388431,-0.0096023
2026-06-18T10:04:41.682062,+0.15,-0.35,-0.90,51.5388431,-0.0096023
2026-06-18T10:04:41.740888,+0.17,-0.33,-0.90,51.5388431,-0.0096023
2026-06-18T10:04:41.805629,+0.01,-0.01,-0.95,51.5388431,-0.0096023
2026-06-18T10:04:41.859784,+0.11,-0.33,-1.03,51.5388319,-0.0096429
2026-06-18T10:04:41.923799,+0.06,-0.09,-0.86,51.5388319,-0.0096429
2026-06-18T10:04:42.012409,+0.09,-0.20,-1.03,51.5388319,-0.0096429
2026-06-18T10:04:42.071638,+0.18,-0.16,-0.95,51.5388319,-0.0096429
2026-06-18T10:04:42.131171,+0.15,-0.20,-0.86,51.5388319,-0.0096429
2026-06-18T10:04:42.190042,+0.10,-0.15,-0.91,51.5388319,-0.0096429
2026-06-18T10:04:42.252139,+0.17,-0.13,-0.85,51.5388319,-0.0096429
2026-06-18T10:04:42.341415,+0.22,-0.30,-1.13,51.5388319,-0.0096429
2026-06-18T10:04:42.402444,+0.14,-0.18,-1.11,51.5388319,-0.0096429
2026-06-18T10:04:42.461967,+0.19,-0.31,-0.92,51.5388319,-0.0096429
2026-06-18T10:04:42.522783,+0.08,-0.18,-0.75,51.5388319,-0.0096429
2026-06-18T10:04:42.580956,+0.18,-0.24,-0.90,51.5388319,-0.0096429
2026-06-18T10:04:42.672410,+0.02,-0.24,-1.05,51.5388319,-0.0096429
2026-06-18T10:04:42.733056,+0.10,-0.27,-0.93,51.5388319,-0.0096429
2026-06-18T10:04:42.790358,+0.10,-0.17,-0.89,51.5388319,-0.0096429
2026-06-18T10:04:42.850290,+0.07,-0.24,-1.01,51.5388168,-0.0096754
2026-06-18T10:04:42.911594,+0.15,-0.19,-0.91,51.5388168,-0.0096754
2026-06-18T10:04:43.002170,+0.05,-0.19,-0.96,51.5388168,-0.0096754
2026-06-18T10:04:43.061831,+0.21,-0.36,-0.93,51.5388168,-0.0096754
2026-06-18T10:04:43.121135,+0.08,-0.12,-0.84,51.5388168,-0.0096754
2026-06-18T10:04:43.180921,+0.01,-0.16,-0.88,51.5388168,-0.0096754
2026-06-18T10:04:43.271694,+0.13,-0.09,-1.05,51.5388168,-0.0096754
2026-06-18T10:04:43.329724,+0.06,-0.20,-1.00,51.5388168,-0.0096754
2026-06-18T10:04:43.392094,+0.12,-0.24,-0.94,51.5388168,-0.0096754
2026-06-18T10:04:43.451705,+0.04,-0.25,-1.07,51.5388168,-0.0096754
2026-06-18T10:04:43.510398,+0.08,-0.17,-1.05,51.5388168,-0.0096754
2026-06-18T10:04:43.601952,+0.07,-0.36,-1.01,51.5388168,-0.0096754
2026-06-18T10:04:43.660145,+0.21,-0.29,-1.00,51.5388168,-0.0096754
2026-06-18T10:04:43.720630,+0.03,-0.09,-0.94,51.5388168,-0.0096754
2026-06-18T10:04:43.788570,+0.12,-0.20,-1.01,51.5388168,-0.0096754
2026-06-18T10:04:43.843030,+0.15,-0.26,-0.82,51.5388004,-0.0097141
2026-06-18T10:04:43.930510,+0.01,-0.21,-0.97,51.5388004,-0.0097141
2026-06-18T10:04:43.991500,+0.06,-0.16,-1.06,51.5388004,-0.0097141
2026-06-18T10:04:44.051516,+0.08,-0.26,-0.83,51.5388004,-0.0097141
2026-06-18T10:04:44.111689,+0.21,-0.28,-0.83,51.5388004,-0.0097141
2026-06-18T10:04:44.170583,+0.15,-0.34,-1.24,51.5388004,-0.0097141
2026-06-18T10:04:44.261778,-0.09,-0.14,-0.90,51.5388004,-0.0097141
2026-06-18T10:04:44.320404,+0.03,-0.05,-1.31,51.5388004,-0.0097141
2026-06-18T10:04:44.381014,+0.36,-0.35,-0.04,51.5388004,-0.0097141
2026-06-18T10:04:44.471927,+0.21,-0.31,-0.73,51.5388004,-0.0097141
2026-06-18T10:04:44.501210,-0.11,+0.18,-0.95,51.5388004,-0.0097141
2026-06-18T10:04:44.592522,+0.16,-0.09,-1.22,51.5388004,-0.0097141
2026-06-18T10:04:44.655434,+0.26,-0.49,-1.23,51.5388004,-0.0097141
2026-06-18T10:04:44.771623,+0.26,-0.28,-0.92,51.5388004,-0.0097141
2026-06-18T10:04:44.772404,+0.19,-0.40,-1.05,51.5388004,-0.0097141
2026-06-18T10:04:44.831069,+0.13,-0.15,-0.87,51.5387823,-0.0097587
2026-06-18T10:04:44.923756,+0.06,-0.25,-0.97,51.5387823,-0.0097587
2026-06-18T10:04:44.981537,+0.17,-0.38,-0.85,51.5387823,-0.0097587
2026-06-18T10:04:45.040883,+0.02,-0.20,-1.10,51.5387823,-0.0097587
2026-06-18T10:04:45.102300,+0.06,-0.14,-1.00,51.5387823,-0.0097587
2026-06-18T10:04:45.191096,+0.06,-0.22,-0.99,51.5387823,-0.0097587
2026-06-18T10:04:45.250468,+0.03,-0.24,-0.86,51.5387823,-0.0097587
2026-06-18T10:04:45.311347,+0.14,-0.27,-0.93,51.5387823,-0.0097587
2026-06-18T10:04:45.372220,+0.02,-0.19,-0.86,51.5387823,-0.0097587
2026-06-18T10:04:45.432593,-0.06,-0.09,-1.31,51.5387823,-0.0097587
2026-06-18T10:04:45.520143,+0.10,-0.25,-1.01,51.5387823,-0.0097587
2026-06-18T10:04:45.584380,+0.14,-0.22,-0.96,51.5387823,-0.0097587
2026-06-18T10:04:45.642130,+0.11,-0.16,-0.99,51.5387823,-0.0097587
2026-06-18T10:04:45.702789,+0.08,-0.11,-0.96,51.5387823,-0.0097587
2026-06-18T10:04:45.763516,+0.08,-0.09,-1.04,51.5387823,-0.0097587
2026-06-18T10:04:45.851466,+0.23,-0.25,-0.88,51.538764,-0.0097998
2026-06-18T10:04:45.912951,+0.12,-0.35,-0.91,51.538764,-0.0097998
2026-06-18T10:04:45.972183,+0.05,-0.06,-1.08,51.538764,-0.0097998
2026-06-18T10:04:46.030989,+0.01,-0.08,-1.06,51.538764,-0.0097998
2026-06-18T10:04:46.091211,-0.01,-0.09,-1.25,51.538764,-0.0097998
2026-06-18T10:04:46.180,+0.12,-0.30,-1.02,51.538764,-0.0097998
2026-06-18T10:04:46.241729,+0.00,-0.22,-1.07,51.538764,-0.0097998
2026-06-18T10:04:46.300004,-0.00,-0.10,-1.09,51.538764,-0.0097998
2026-06-18T10:04:46.360323,+0.03,-0.21,-0.92,51.538764,-0.0097998
2026-06-18T10:04:46.419716,+0.11,-0.27,-0.80,51.538764,-0.0097998
2026-06-18T10:04:46.511309,+0.07,-0.25,-0.88,51.538764,-0.0097998
2026-06-18T10:04:46.571416,+0.05,-0.16,-1.03,51.538764,-0.0097998
2026-06-18T10:04:46.632126,-0.06,-0.05,-1.14,51.538764,-0.0097998
2026-06-18T10:04:46.692083,+0.16,-0.24,-0.92,51.538764,-0.0097998
2026-06-18T10:04:46.753626,+0.15,-0.18,-0.95,51.538764,-0.0097998
2026-06-18T10:04:46.840284,+0.17,-0.22,-1.06,51.5387451,-0.0098385
2026-06-18T10:04:46.902526,+0.14,-0.15,-0.90,51.5387451,-0.0098385
2026-06-18T10:04:46.962300,+0.17,-0.20,-1.05,51.5387451,-0.0098385
2026-06-18T10:04:47.032043,+0.18,-0.17,-0.94,51.5387451,-0.0098385
2026-06-18T10:04:47.110253,+0.18,-0.18,-0.97,51.5387451,-0.0098385
2026-06-18T10:04:47.169564,+0.12,-0.14,-0.93,51.5387451,-0.0098385
2026-06-18T10:04:47.228835,+0.16,-0.33,-0.92,51.5387451,-0.0098385
2026-06-18T10:04:47.290251,-0.05,-0.22,-1.08,51.5387451,-0.0098385
2026-06-18T10:04:47.380297,+0.06,-0.26,-1.12,51.5387451,-0.0098385
2026-06-18T10:04:47.439316,-0.01,-0.22,-0.93,51.5387451,-0.0098385
2026-06-18T10:04:47.501828,+0.05,-0.24,-1.13,51.5387451,-0.0098385
2026-06-18T10:04:47.559968,-0.07,+0.02,-1.16,51.5387451,-0.0098385
2026-06-18T10:04:47.622535,+0.20,-0.32,-1.06,51.5387451,-0.0098385
2026-06-18T10:04:47.712240,+0.04,-0.25,-1.07,51.5387451,-0.0098385
2026-06-18T10:04:47.769539,+0.15,-0.34,-0.66,51.5387451,-0.0098385
2026-06-18T10:04:47.830810,+0.08,+0.01,-0.64,51.5387277,-0.0098737
2026-06-18T10:04:47.889945,+0.02,-0.07,-1.02,51.5387277,-0.0098737
2026-06-18T10:04:47.951065,+0.17,-0.18,-1.14,51.5387277,-0.0098737
2026-06-18T10:04:48.041011,+0.31,-0.34,-0.88,51.5387277,-0.0098737
2026-06-18T10:04:48.101096,-0.00,+0.01,-1.54,51.5387277,-0.0098737
2026-06-18T10:04:48.162540,-0.07,-0.10,-1.98,51.5387277,-0.0098737
2026-06-18T10:04:48.222355,+0.06,-0.10,-0.83,51.5387277,-0.0098737
2026-06-18T10:04:48.278617,+0.23,-0.46,-1.12,51.5387277,-0.0098737
2026-06-18T10:04:48.370216,+0.09,-0.39,-1.08,51.5387277,-0.0098737
2026-06-18T10:04:48.429647,-0.01,-0.29,-1.63,51.5387277,-0.0098737
2026-06-18T10:04:48.491297,+0.15,-0.45,-0.64,51.5387277,-0.0098737
2026-06-18T10:04:48.549234,+0.19,-0.42,-0.74,51.5387277,-0.0098737
2026-06-18T10:04:48.608933,-0.08,+0.08,-0.97,51.5387277,-0.0098737
2026-06-18T10:04:48.704715,+0.47,-0.67,-0.59,51.5387277,-0.0098737
2026-06-18T10:04:48.759303,-0.09,-0.03,-1.19,51.5387277,-0.0098737
2026-06-18T10:04:48.820114,+0.11,-0.13,-1.02,51.5387086,-0.0099097
2026-06-18T10:04:48.884511,+0.15,-0.15,-1.18,51.5387086,-0.0099097
2026-06-18T10:04:48.940404,-0.02,-0.24,-1.47,51.5387086,-0.0099097
2026-06-18T10:04:49.029687,+0.13,-0.28,-1.21,51.5387086,-0.0099097
2026-06-18T10:04:49.119756,+0.23,-0.44,-0.53,51.5387086,-0.0099097
2026-06-18T10:04:49.150489,+0.09,+0.07,-1.24,51.5387086,-0.0099097
2026-06-18T10:04:49.211815,+0.14,-0.31,-1.12,51.5387086,-0.0099097
2026-06-18T10:04:49.306366,+0.10,-0.15,-1.15,51.5387086,-0.0099097
2026-06-18T10:04:49.360041,+0.04,-0.18,-1.03,51.5387086,-0.0099097
2026-06-18T10:04:49.418885,+0.08,-0.23,-0.79,51.5387086,-0.0099097
2026-06-18T10:04:49.481760,-0.01,-0.04,-0.95,51.5387086,-0.0099097
2026-06-18T10:04:49.539843,+0.07,-0.12,-0.99,51.5387086,-0.0099097
2026-06-18T10:04:49.635024,+0.15,-0.29,-0.85,51.5387086,-0.0099097
2026-06-18T10:04:49.690186,-0.09,-0.13,-1.04,51.5387086,-0.0099097
2026-06-18T10:04:49.752957,+0.05,-0.19,-1.16,51.5387086,-0.0099097
2026-06-18T10:04:49.808827,-0.01,-0.19,-1.02,51.5386921,-0.0099541
2026-06-18T10:04:49.868360,+0.13,-0.22,-1.06,51.5386921,-0.0099541
2026-06-18T10:04:49.960476,+0.10,-0.09,-0.93,51.5386921,-0.0099541
2026-06-18T10:04:50.020430,+0.11,-0.03,-0.96,51.5386921,-0.0099541
2026-06-18T10:04:50.080449,-0.02,-0.17,-1.07,51.5386921,-0.0099541
2026-06-18T10:04:50.138843,+0.13,-0.24,-1.03,51.5386921,-0.0099541
2026-06-18T10:04:50.199668,+0.05,-0.20,-0.96,51.5386921,-0.0099541
2026-06-18T10:04:50.291477,+0.20,-0.21,-0.88,51.5386921,-0.0099541
2026-06-18T10:04:50.349775,+0.13,-0.22,-0.79,51.5386921,-0.0099541
2026-06-18T10:04:50.408885,+0.07,-0.22,-1.07,51.5386921,-0.0099541
2026-06-18T10:04:50.469694,+0.13,-0.12,-1.06,51.5386921,-0.0099541
2026-06-18T10:04:50.530500,+0.26,-0.36,-0.66,51.5386921,-0.0099541
2026-06-18T10:04:50.621478,-0.29,+0.28,-2.02,51.5386921,-0.0099541
2026-06-18T10:04:50.679108,+0.29,-0.42,-1.22,51.5386921,-0.0099541
2026-06-18T10:04:50.738745,+0.08,-0.41,-0.63,51.5386921,-0.0099541
2026-06-18T10:04:50.804503,+0.22,-0.25,-1.17,51.5386921,-0.0099541
2026-06-18T10:04:50.865586,+0.22,-0.40,-0.50,51.5386748,-0.0099911
2026-06-18T10:04:50.949999,-0.30,+0.73,-0.48,51.5386748,-0.0099911
2026-06-18T10:04:51.010741,+0.26,-0.46,-1.08,51.5386748,-0.0099911
2026-06-18T10:04:51.068361,+0.23,-0.11,-1.21,51.5386748,-0.0099911
2026-06-18T10:04:51.128620,-0.00,-0.19,-1.30,51.5386748,-0.0099911
2026-06-18T10:04:51.221463,-0.03,+0.03,-2.12,51.5386748,-0.0099911
2026-06-18T10:04:51.278536,-0.19,-0.13,-1.52,51.5386748,-0.0099911
2026-06-18T10:04:51.339609,+0.06,-0.15,-0.60,51.5386748,-0.0099911
2026-06-18T10:04:51.398178,+0.25,-0.30,-1.00,51.5386748,-0.0099911
2026-06-18T10:04:51.493005,+0.16,-0.31,-0.95,51.5386748,-0.0099911
2026-06-18T10:04:51.549071,+0.02,-0.01,-0.59,51.5386748,-0.0099911
2026-06-18T10:04:51.608267,-0.03,-0.12,-0.95,51.5386748,-0.0099911
2026-06-18T10:04:51.668304,+0.14,-0.60,-1.59,51.5386748,-0.0099911
2026-06-18T10:04:51.728661,-0.30,+0.15,-2.02,51.5386748,-0.0099911
2026-06-18T10:04:51.818387,+0.30,-0.40,-0.57,51.5386543,-0.0100257
2026-06-18T10:04:51.878367,+0.11,-0.23,-0.79,51.5386543,-0.0100257
2026-06-18T10:04:51.938032,-0.04,-0.06,-0.72,51.5386543,-0.0100257
2026-06-18T10:04:51.998072,-0.09,+0.20,-0.84,51.5386543,-0.0100257
2026-06-18T10:04:52.058345,+0.17,-0.39,-1.02,51.5386543,-0.0100257
2026-06-18T10:04:52.148633,+0.27,-0.42,-0.84,51.5386543,-0.0100257
2026-06-18T10:04:52.208267,+0.15,-0.32,-1.04,51.5386543,-0.0100257
2026-06-18T10:04:52.268102,-0.00,-0.11,-0.89,51.5386543,-0.0100257
2026-06-18T10:04:52.328017,+0.10,-0.21,-0.83,51.5386543,-0.0100257
2026-06-18T10:04:52.391549,+0.28,-0.06,-0.98,51.5386543,-0.0100257
2026-06-18T10:04:52.508718,+0.13,-0.20,-0.96,51.5386543,-0.0100257
2026-06-18T10:04:52.561094,+0.14,-0.31,-1.17,51.5386543,-0.0100257
2026-06-18T10:04:52.598978,+0.06,-0.10,-1.07,51.5386543,-0.0100257
2026-06-18T10:04:52.660193,+0.18,-0.32,-0.93,51.5386543,-0.0100257
2026-06-18T10:04:52.719908,+0.15,-0.21,-0.97,51.5386543,-0.0100257
2026-06-18T10:04:52.819136,+0.15,-0.20,-0.97,51.5386354,-0.0100615
2026-06-18T10:04:52.869421,+0.16,-0.28,-1.05,51.5386354,-0.0100615
2026-06-18T10:04:52.929754,+0.11,-0.14,-0.99,51.5386354,-0.0100615
2026-06-18T10:04:52.988215,+0.06,-0.19,-0.87,51.5386354,-0.0100615
2026-06-18T10:04:53.049894,+0.14,-0.17,-1.02,51.5386354,-0.0100615
2026-06-18T10:04:53.109765,+0.07,-0.20,-1.02,51.5386354,-0.0100615
2026-06-18T10:04:53.198493,+0.11,-0.18,-1.11,51.5386354,-0.0100615
2026-06-18T10:04:53.258305,+0.11,-0.34,-0.95,51.5386354,-0.0100615
2026-06-18T10:04:53.320467,+0.15,-0.35,-0.89,51.5386354,-0.0100615
2026-06-18T10:04:53.409016,-0.04,-0.07,-1.01,51.5386354,-0.0100615
2026-06-18T10:04:53.468043,+0.04,-0.15,-1.15,51.5386354,-0.0100615
2026-06-18T10:04:53.529683,+0.13,-0.16,-1.00,51.5386354,-0.0100615
2026-06-18T10:04:53.588885,+0.19,-0.21,-0.85,51.5386354,-0.0100615
2026-06-18T10:04:53.648748,+0.23,-0.25,-0.82,51.5386354,-0.0100615
2026-06-18T10:04:53.738523,+0.01,-0.14,-1.06,51.5386354,-0.0100615
2026-06-18T10:04:53.798344,+0.13,-0.18,-1.03,51.5386167,-0.0100928
2026-06-18T10:04:53.859350,+0.15,-0.34,-1.06,51.5386167,-0.0100928
2026-06-18T10:04:53.918577,+0.22,-0.31,-0.76,51.5386167,-0.0100928
2026-06-18T10:04:53.980819,+0.09,-0.16,-0.89,51.5386167,-0.0100928
2026-06-18T10:04:54.070162,+0.14,-0.16,-1.08,51.5386167,-0.0100928
2026-06-18T10:04:54.128227,+0.01,-0.02,-1.21,51.5386167,-0.0100928
2026-06-18T10:04:54.188929,+0.01,-0.25,-1.07,51.5386167,-0.0100928
2026-06-18T10:04:54.249888,+0.13,-0.34,-0.74,51.5386167,-0.0100928
2026-06-18T10:04:54.308115,-0.02,-0.10,-1.23,51.5386167,-0.0100928
2026-06-18T10:04:54.398522,-0.13,-0.18,-1.25,51.5386167,-0.0100928
2026-06-18T10:04:54.458577,+0.10,-0.41,-1.14,51.5386167,-0.0100928
2026-06-18T10:04:54.518095,+0.11,-0.23,-1.16,51.5386167,-0.0100928
2026-06-18T10:04:54.581056,+0.19,-0.42,-1.14,51.5386167,-0.0100928
2026-06-18T10:04:54.638441,+0.00,-0.08,-0.92,51.5386167,-0.0100928
2026-06-18T10:04:54.728122,+0.11,-0.18,-1.00,51.5386167,-0.0100928
2026-06-18T10:04:54.788131,-0.00,+0.00,-1.52,51.5385969,-0.0101231
2026-06-18T10:04:54.848005,+0.12,-0.20,-0.69,51.5385969,-0.0101231
2026-06-18T10:04:54.908391,+0.16,-0.13,-0.74,51.5385969,-0.0101231
2026-06-18T10:04:54.968131,+0.18,-0.12,-1.02,51.5385969,-0.0101231
2026-06-18T10:04:55.059381,+0.17,-0.25,-0.99,51.5385969,-0.0101231
2026-06-18T10:04:55.118101,+0.12,-0.20,-1.03,51.5385969,-0.0101231
2026-06-18T10:04:55.178084,+0.18,-0.21,-0.91,51.5385969,-0.0101231
2026-06-18T10:04:55.238188,+0.21,-0.34,-1.11,51.5385969,-0.0101231
2026-06-18T10:04:55.298340,+0.05,-0.10,-1.07,51.5385969,-0.0101231
2026-06-18T10:04:55.388358,+0.14,-0.30,-0.78,51.5385969,-0.0101231
2026-06-18T10:04:55.448401,+0.03,-0.21,-0.96,51.5385969,-0.0101231
2026-06-18T10:04:55.508267,-0.03,-0.10,-1.01,51.5385969,-0.0101231
2026-06-18T10:04:55.568363,+0.04,-0.22,-0.88,51.5385969,-0.0101231
2026-06-18T10:04:55.658747,+0.25,-0.28,-0.95,51.5385969,-0.0101231
2026-06-18T10:04:55.718066,+0.15,-0.30,-0.83,51.5385969,-0.0101231
2026-06-18T10:04:55.780103,+0.18,-0.15,-1.00,51.5385969,-0.0101231
2026-06-18T10:04:55.838217,+0.22,-0.13,-0.89,51.5385796,-0.0101551
2026-06-18T10:04:55.898548,-0.03,-0.16,-1.26,51.5385796,-0.0101551
2026-06-18T10:04:55.988573,-0.00,-0.24,-0.94,51.5385796,-0.0101551
2026-06-18T10:04:56.048262,+0.18,-0.14,-0.93,51.5385796,-0.0101551
2026-06-18T10:04:56.108302,+0.19,-0.12,-1.02,51.5385796,-0.0101551
2026-06-18T10:04:56.168235,+0.10,-0.14,-0.98,51.5385796,-0.0101551
2026-06-18T10:04:56.228496,+0.14,-0.14,-1.07,51.5385796,-0.0101551
2026-06-18T10:04:56.318789,+0.25,-0.26,-1.00,51.5385796,-0.0101551
2026-06-18T10:04:56.378365,+0.15,-0.28,-0.78,51.5385796,-0.0101551
2026-06-18T10:04:56.438559,+0.12,-0.07,-0.92,51.5385796,-0.0101551
2026-06-18T10:04:56.499174,+0.16,-0.21,-0.93,51.5385796,-0.0101551
2026-06-18T10:04:56.558236,+0.16,-0.23,-1.00,51.5385796,-0.0101551
2026-06-18T10:04:56.648464,-0.02,-0.08,-0.99,51.5385796,-0.0101551
2026-06-18T10:04:56.708689,+0.14,-0.27,-0.83,51.5385796,-0.0101551
2026-06-18T10:04:56.768323,+0.14,-0.18,-0.85,51.5385796,-0.0101551
2026-06-18T10:04:56.829652,+0.15,-0.22,-0.88,51.5385647,-0.0101838
2026-06-18T10:04:56.888207,+0.05,-0.21,-1.06,51.5385647,-0.0101838
2026-06-18T10:04:56.977992,+0.12,-0.24,-0.99,51.5385647,-0.0101838
2026-06-18T10:04:57.038240,+0.23,-0.32,-1.08,51.5385647,-0.0101838
2026-06-18T10:04:57.098266,-0.03,-0.27,-0.83,51.5385647,-0.0101838
2026-06-18T10:04:57.158034,-0.01,+0.01,-1.15,51.5385647,-0.0101838
2026-06-18T10:04:57.218046,+0.07,-0.15,-1.20,51.5385647,-0.0101838
2026-06-18T10:04:57.308351,+0.18,-0.17,-0.95,51.5385647,-0.0101838
2026-06-18T10:04:57.368530,+0.09,-0.10,-1.08,51.5385647,-0.0101838
2026-06-18T10:04:57.428798,+0.31,-0.20,-0.74,51.5385647,-0.0101838
2026-06-18T10:04:57.489782,+0.16,-0.36,-0.87,51.5385647,-0.0101838
2026-06-18T10:04:57.578233,+0.08,-0.13,-0.80,51.5385647,-0.0101838
2026-06-18T10:04:57.638242,+0.05,-0.12,-0.88,51.5385647,-0.0101838
2026-06-18T10:04:57.698187,+0.24,-0.27,-0.95,51.5385647,-0.0101838
2026-06-18T10:04:57.758967,+0.06,-0.12,-1.15,51.5385647,-0.0101838
2026-06-18T10:04:57.818261,+0.06,-0.29,-1.13,51.5385533,-0.0102123
2026-06-18T10:04:57.908560,+0.14,-0.05,-1.04,51.5385533,-0.0102123
2026-06-18T10:04:57.998668,+0.30,-0.49,-0.97,51.5385533,-0.0102123
2026-06-18T10:04:58.028367,-0.06,-0.26,-1.18,51.5385533,-0.0102123
2026-06-18T10:04:58.088521,+0.14,-0.28,-0.91,51.5385533,-0.0102123
2026-06-18T10:04:58.148259,+0.13,-0.23,-0.94,51.5385533,-0.0102123
2026-06-18T10:04:58.238110,+0.04,-0.25,-1.01,51.5385533,-0.0102123
2026-06-18T10:04:58.328838,-0.07,-0.08,-0.99,51.5385533,-0.0102123
2026-06-18T10:04:58.358583,+0.15,-0.18,-1.11,51.5385533,-0.0102123
2026-06-18T10:04:58.419807,+0.28,-0.23,-0.78,51.5385533,-0.0102123
2026-06-18T10:04:58.478895,+0.24,-0.19,-0.88,51.5385533,-0.0102123
2026-06-18T10:04:58.568368,+0.01,+0.16,-1.15,51.5385533,-0.0102123
2026-06-18T10:04:58.628859,+0.14,-0.28,-0.90,51.5385533,-0.0102123
2026-06-18T10:04:58.688147,+0.19,-0.36,-0.89,51.5385533,-0.0102123
2026-06-18T10:04:58.748440,+0.12,-0.21,-0.82,51.5385533,-0.0102123
2026-06-18T10:04:58.808223,+0.11,-0.23,-1.15,51.5385389,-0.0102559
2026-06-18T10:04:58.900022,-0.01,+0.02,-1.11,51.5385389,-0.0102559
2026-06-18T10:04:58.958332,+0.06,-0.15,-1.10,51.5385389,-0.0102559
2026-06-18T10:04:59.018437,+0.10,-0.23,-1.05,51.5385389,-0.0102559
2026-06-18T10:04:59.078442,+0.11,-0.29,-0.75,51.5385389,-0.0102559
2026-06-18T10:04:59.138625,+0.04,-0.12,-1.08,51.5385389,-0.0102559
2026-06-18T10:04:59.228834,+0.12,-0.32,-0.89,51.5385389,-0.0102559
2026-06-18T10:04:59.288420,+0.10,-0.13,-0.57,51.5385389,-0.0102559
2026-06-18T10:04:59.348293,+0.02,-0.24,-0.98,51.5385389,-0.0102559
2026-06-18T10:04:59.408345,-0.10,-0.19,-1.89,51.5385389,-0.0102559
2026-06-18T10:04:59.498225,+0.06,-0.08,-1.17,51.5385389,-0.0102559
2026-06-18T10:04:59.558357,+0.17,-0.16,-1.00,51.5385389,-0.0102559
2026-06-18T10:04:59.618714,-0.07,+0.09,-1.17,51.5385389,-0.0102559
2026-06-18T10:04:59.678251,+0.23,-0.19,-0.79,51.5385389,-0.0102559
2026-06-18T10:04:59.768504,+0.08,-0.12,-0.65,51.5385389,-0.0102559
2026-06-18T10:04:59.829248,+0.20,-0.18,-0.94,51.5385251,-0.0103135
2026-06-18T10:04:59.888725,+0.16,-0.25,-0.95,51.5385251,-0.0103135
2026-06-18T10:04:59.948354,+0.10,-0.16,-0.90,51.5385251,-0.0103135
2026-06-18T10:05:00.008141,+0.13,-0.25,-0.94,51.5385251,-0.0103135
2026-06-18T10:05:00.100456,+0.10,-0.27,-1.01,51.5385251,-0.0103135
2026-06-18T10:05:00.158097,+0.02,-0.13,-1.00,51.5385251,-0.0103135
2026-06-18T10:05:00.218176,-0.00,-0.14,-1.01,51.5385251,-0.0103135
2026-06-18T10:05:00.278545,-0.66,+0.60,-2.94,51.5385251,-0.0103135
2026-06-18T10:05:00.340532,+0.07,-0.70,-1.18,51.5385251,-0.0103135
2026-06-18T10:05:00.428550,+0.41,-0.31,-0.77,51.5385251,-0.0103135
2026-06-18T10:05:00.489003,-0.02,-0.05,-0.75,51.5385251,-0.0103135
2026-06-18T10:05:00.548549,+0.04,-0.04,-0.72,51.5385251,-0.0103135
2026-06-18T10:05:00.608859,-0.29,+0.79,+0.01,51.5385251,-0.0103135
2026-06-18T10:05:00.668106,+0.24,-0.36,-0.90,51.5385251,-0.0103135
2026-06-18T10:05:00.758753,+0.24,-0.41,-1.09,51.5385251,-0.0103135
2026-06-18T10:05:00.819647,+0.10,-0.16,-1.03,51.5385056,-0.0103742
2026-06-18T10:05:00.878085,+0.02,-0.03,-0.96,51.5385056,-0.0103742
2026-06-18T10:05:00.938333,+0.34,-0.30,-0.82,51.5385056,-0.0103742
2026-06-18T10:05:00.998266,+0.20,-0.24,-1.20,51.5385056,-0.0103742
2026-06-18T10:05:01.088404,+0.11,-0.15,-0.78,51.5385056,-0.0103742
2026-06-18T10:05:01.148338,+0.10,-0.21,-0.95,51.5385056,-0.0103742
2026-06-18T10:05:01.209190,+0.20,-0.17,-0.96,51.5385056,-0.0103742
2026-06-18T10:05:01.268475,+0.02,-0.21,-1.03,51.5385056,-0.0103742
2026-06-18T10:05:01.329053,+0.13,-0.20,-0.78,51.5385056,-0.0103742
2026-06-18T10:05:01.418682,+0.10,-0.23,-1.07,51.5385056,-0.0103742
2026-06-18T10:05:01.478387,+0.06,-0.20,-0.92,51.5385056,-0.0103742
2026-06-18T10:05:01.538073,+0.16,-0.27,-1.05,51.5385056,-0.0103742
2026-06-18T10:05:01.599251,+0.14,-0.26,-1.03,51.5385056,-0.0103742
2026-06-18T10:05:01.689097,+0.30,-0.44,-0.58,51.5385056,-0.0103742
2026-06-18T10:05:01.749117,+0.00,-0.12,-0.90,51.5385056,-0.0103742
2026-06-18T10:05:01.808330,+0.12,-0.12,-0.97,51.5384892,-0.0104285
2026-06-18T10:05:01.868046,+0.15,-0.14,-0.87,51.5384892,-0.0104285
2026-06-18T10:05:01.928362,+0.18,-0.28,-1.05,51.5384892,-0.0104285
2026-06-18T10:05:02.019744,+0.24,-0.21,-1.08,51.5384892,-0.0104285
2026-06-18T10:05:02.080031,+0.11,-0.27,-1.02,51.5384892,-0.0104285
2026-06-18T10:05:02.142037,+0.08,-0.02,-1.14,51.5384892,-0.0104285
2026-06-18T10:05:02.200810,+0.22,-0.41,-0.85,51.5384892,-0.0104285
2026-06-18T10:05:02.260332,+0.24,-0.25,-0.86,51.5384892,-0.0104285
2026-06-18T10:05:02.350127,+0.08,-0.17,-0.89,51.5384892,-0.0104285
2026-06-18T10:05:02.409836,+0.05,-0.23,-1.02,51.5384892,-0.0104285
2026-06-18T10:05:02.470260,+0.22,-0.19,-0.91,51.5384892,-0.0104285
2026-06-18T10:05:02.528803,+0.09,-0.29,-1.03,51.5384892,-0.0104285
2026-06-18T10:05:02.589393,+0.05,-0.21,-1.14,51.5384892,-0.0104285
2026-06-18T10:05:02.679981,+0.05,-0.17,-1.22,51.5384892,-0.0104285
2026-06-18T10:05:02.738220,+0.12,-0.27,-0.99,51.5384892,-0.0104285
2026-06-18T10:05:02.808382,+0.23,-0.36,-0.76,51.5384734,-0.0104824
2026-06-18T10:05:02.858215,+0.15,-0.27,-0.86,51.5384734,-0.0104824
2026-06-18T10:05:02.918607,+0.11,-0.17,-1.01,51.5384734,-0.0104824
2026-06-18T10:05:03.010271,+0.06,-0.16,-1.03,51.5384734,-0.0104824
2026-06-18T10:05:03.068372,+0.12,-0.12,-1.07,51.5384734,-0.0104824
2026-06-18T10:05:03.129841,+0.19,-0.20,-0.91,51.5384734,-0.0104824
2026-06-18T10:05:03.191246,+0.17,-0.25,-0.94,51.5384734,-0.0104824
2026-06-18T10:05:03.249969,+0.18,-0.26,-1.02,51.5384734,-0.0104824
2026-06-18T10:05:03.338677,+0.17,-0.20,-0.80,51.5384734,-0.0104824
2026-06-18T10:05:03.398692,+0.08,-0.16,-0.92,51.5384734,-0.0104824
2026-06-18T10:05:03.458180,+0.06,-0.26,-1.03,51.5384734,-0.0104824
2026-06-18T10:05:03.519974,+0.04,-0.18,-1.06,51.5384734,-0.0104824
2026-06-18T10:05:03.610213,+0.07,-0.20,-0.94,51.5384734,-0.0104824
2026-06-18T10:05:03.671620,+0.08,-0.20,-0.85,51.5384734,-0.0104824
2026-06-18T10:05:03.728578,+0.05,-0.17,-1.15,51.5384734,-0.0104824
2026-06-18T10:05:03.788585,+0.16,-0.27,-0.89,51.5384734,-0.0104824
2026-06-18T10:05:03.849564,+0.09,-0.22,-0.95,51.5384593,-0.0105379
2026-06-18T10:05:03.939838,+0.08,-0.18,-1.02,51.5384593,-0.0105379
2026-06-18T10:05:03.999576,+0.09,-0.11,-0.96,51.5384593,-0.0105379
2026-06-18T10:05:04.059390,+0.16,-0.23,-1.00,51.5384593,-0.0105379
2026-06-18T10:05:04.118910,+0.15,-0.28,-0.74,51.5384593,-0.0105379
2026-06-18T10:05:04.179949,+0.14,-0.21,-1.01,51.5384593,-0.0105379
2026-06-18T10:05:04.270519,+0.16,-0.20,-0.82,51.5384593,-0.0105379
2026-06-18T10:05:04.330008,+0.07,-0.25,-0.96,51.5384593,-0.0105379
2026-06-18T10:05:04.388864,+0.22,-0.27,-0.85,51.5384593,-0.0105379
2026-06-18T10:05:04.451369,+0.16,-0.20,-1.08,51.5384593,-0.0105379
2026-06-18T10:05:04.510014,+0.16,-0.21,-0.88,51.5384593,-0.0105379
2026-06-18T10:05:04.600256,+0.06,-0.17,-0.98,51.5384593,-0.0105379
2026-06-18T10:05:04.658784,+0.06,-0.10,-0.98,51.5384593,-0.0105379
2026-06-18T10:05:04.718554,+0.14,-0.25,-1.04,51.5384593,-0.0105379
2026-06-18T10:05:04.778689,+0.10,-0.28,-0.91,51.5384593,-0.0105379
2026-06-18T10:05:04.839713,+0.17,-0.22,-0.94,51.5384449,-0.0105948
2026-06-18T10:05:04.929841,+0.15,-0.22,-0.75,51.5384449,-0.0105948
2026-06-18T10:05:04.988330,+0.10,-0.20,-1.01,51.5384449,-0.0105948
2026-06-18T10:05:05.049302,+0.18,-0.26,-0.90,51.5384449,-0.0105948
2026-06-18T10:05:05.110841,+0.07,-0.18,-1.02,51.5384449,-0.0105948
2026-06-18T10:05:05.169873,+0.16,-0.33,-0.95,51.5384449,-0.0105948
2026-06-18T10:05:05.260171,+0.05,-0.18,-0.99,51.5384449,-0.0105948
2026-06-18T10:05:05.318625,+0.08,-0.13,-0.93,51.5384449,-0.0105948
2026-06-18T10:05:05.378143,+0.20,-0.24,-1.11,51.5384449,-0.0105948
2026-06-18T10:05:05.439061,+0.04,-0.18,-1.07,51.5384449,-0.0105948
2026-06-18T10:05:05.500641,+0.16,-0.28,-1.00,51.5384449,-0.0105948
2026-06-18T10:05:05.590812,+0.07,-0.27,-1.01,51.5384449,-0.0105948
2026-06-18T10:05:05.650115,+0.04,+0.03,-0.98,51.5384449,-0.0105948
2026-06-18T10:05:05.709952,+0.19,-0.26,-0.87,51.5384449,-0.0105948
2026-06-18T10:05:05.770021,+0.10,-0.17,-0.93,51.5384449,-0.0105948
2026-06-18T10:05:05.861508,+0.18,-0.33,-0.93,51.5384298,-0.0106486
2026-06-18T10:05:05.920198,+0.09,-0.13,-0.85,51.5384298,-0.0106486
2026-06-18T10:05:05.979652,+0.08,-0.25,-1.00,51.5384298,-0.0106486
2026-06-18T10:05:06.039861,+0.05,-0.18,-0.98,51.5384298,-0.0106486
2026-06-18T10:05:06.098550,-0.01,-0.06,-1.09,51.5384298,-0.0106486
2026-06-18T10:05:06.190420,+0.15,-0.24,-0.93,51.5384298,-0.0106486
2026-06-18T10:05:06.249965,+0.06,-0.17,-0.92,51.5384298,-0.0106486
2026-06-18T10:05:06.309296,+0.24,-0.27,-0.95,51.5384298,-0.0106486
2026-06-18T10:05:06.368496,+0.19,-0.21,-0.80,51.5384298,-0.0106486
2026-06-18T10:05:06.430920,+0.16,-0.17,-0.90,51.5384298,-0.0106486
2026-06-18T10:05:06.519323,+0.06,-0.22,-0.90,51.5384298,-0.0106486
2026-06-18T10:05:06.579925,+0.01,-0.29,-1.16,51.5384298,-0.0106486
2026-06-18T10:05:06.639020,+0.02,-0.14,-0.99,51.5384298,-0.0106486
2026-06-18T10:05:06.699856,+0.15,-0.19,-0.77,51.5384298,-0.0106486
2026-06-18T10:05:06.762376,+0.13,-0.11,-0.98,51.5384298,-0.0106486
2026-06-18T10:05:06.848479,+0.12,-0.21,-0.83,51.5384151,-0.0107011
2026-06-18T10:05:06.909396,+0.21,-0.23,-0.74,51.5384151,-0.0107011
2026-06-18T10:05:06.969373,+0.06,-0.17,-1.06,51.5384151,-0.0107011
2026-06-18T10:05:07.030417,+0.04,-0.14,-0.90,51.5384151,-0.0107011
2026-06-18T10:05:07.090385,+0.13,-0.18,-0.87,51.5384151,-0.0107011
2026-06-18T10:05:07.180321,+0.07,-0.07,-0.93,51.5384151,-0.0107011
2026-06-18T10:05:07.239615,+0.09,-0.23,-1.06,51.5384151,-0.0107011
2026-06-18T10:05:07.300522,+0.19,-0.24,-0.75,51.5384151,-0.0107011
2026-06-18T10:05:07.359861,+0.09,-0.15,-0.89,51.5384151,-0.0107011
2026-06-18T10:05:07.419038,+0.05,-0.12,-1.03,51.5384151,-0.0107011
2026-06-18T10:05:07.510300,+0.13,-0.23,-1.00,51.5384151,-0.0107011
2026-06-18T10:05:07.570598,+0.14,-0.12,-0.90,51.5384151,-0.0107011
2026-06-18T10:05:07.631074,-0.03,-0.18,-1.12,51.5384151,-0.0107011
2026-06-18T10:05:07.720065,+0.15,-0.30,-1.00,51.5384151,-0.0107011
2026-06-18T10:05:07.780767,+0.06,-0.08,-0.86,51.5384151,-0.0107011
2026-06-18T10:05:07.840715,+0.09,-0.23,-0.90,51.5384004,-0.0107543
2026-06-18T10:05:07.899808,+0.05,-0.21,-1.14,51.5384004,-0.0107543
2026-06-18T10:05:07.960283,+0.11,-0.27,-0.96,51.5384004,-0.0107543
2026-06-18T10:05:08.050697,+0.15,-0.23,-0.76,51.5384004,-0.0107543
2026-06-18T10:05:08.110321,+0.08,-0.17,-1.10,51.5384004,-0.0107543
2026-06-18T10:05:08.170182,+0.12,-0.23,-1.01,51.5384004,-0.0107543
2026-06-18T10:05:08.230034,+0.12,-0.20,-0.90,51.5384004,-0.0107543
2026-06-18T10:05:08.291285,+0.07,-0.22,-0.94,51.5384004,-0.0107543
2026-06-18T10:05:08.379567,+0.14,-0.18,-0.82,51.5384004,-0.0107543
2026-06-18T10:05:08.440135,+0.07,-0.13,-0.88,51.5384004,-0.0107543
2026-06-18T10:05:08.500474,+0.14,-0.27,-1.00,51.5384004,-0.0107543
2026-06-18T10:05:08.559303,+0.17,-0.14,-1.01,51.5384004,-0.0107543
2026-06-18T10:05:08.621688,+0.06,-0.08,-1.05,51.5384004,-0.0107543
2026-06-18T10:05:08.711829,+0.23,-0.16,-0.92,51.5384004,-0.0107543
2026-06-18T10:05:08.772095,+0.15,-0.16,-0.82,51.5384004,-0.0107543
2026-06-18T10:05:08.829793,+0.10,-0.17,-1.09,51.5383863,-0.0108071
2026-06-18T10:05:08.890595,+0.21,-0.21,-0.97,51.5383863,-0.0108071
2026-06-18T10:05:08.951580,-0.00,-0.25,-0.92,51.5383863,-0.0108071
2026-06-18T10:05:09.040080,+0.01,-0.14,-1.00,51.5383863,-0.0108071
2026-06-18T10:05:09.098356,+0.11,-0.18,-1.04,51.5383863,-0.0108071
2026-06-18T10:05:09.158661,+0.22,-0.32,-0.94,51.5383863,-0.0108071
2026-06-18T10:05:09.218430,+0.16,-0.24,-0.76,51.5383863,-0.0108071
2026-06-18T10:05:09.279993,+0.01,-0.07,-1.04,51.5383863,-0.0108071
2026-06-18T10:05:09.369413,+0.04,-0.17,-1.27,51.5383863,-0.0108071
2026-06-18T10:05:09.430579,+0.13,-0.30,-0.87,51.5383863,-0.0108071
2026-06-18T10:05:09.489401,+0.12,-0.15,-0.85,51.5383863,-0.0108071
2026-06-18T10:05:09.550484,+0.18,-0.18,-0.93,51.5383863,-0.0108071
2026-06-18T10:05:09.609823,+0.15,-0.27,-0.94,51.5383863,-0.0108071
2026-06-18T10:05:09.703191,+0.15,-0.19,-0.91,51.5383863,-0.0108071
2026-06-18T10:05:09.760688,+0.16,-0.20,-0.86,51.5383863,-0.0108071
2026-06-18T10:05:09.819164,+0.11,-0.14,-0.95,51.5383746,-0.0108586
2026-06-18T10:05:09.879344,+0.03,-0.19,-1.00,51.5383746,-0.0108586
2026-06-18T10:05:09.971201,+0.08,-0.23,-0.88,51.5383746,-0.0108586
2026-06-18T10:05:10.029845,+0.06,-0.16,-0.85,51.5383746,-0.0108586
2026-06-18T10:05:10.090583,+0.03,-0.16,-1.11,51.5383746,-0.0108586
2026-06-18T10:05:10.151344,+0.19,-0.29,-0.96,51.5383746,-0.0108586
2026-06-18T10:05:10.211054,+0.05,-0.23,-1.04,51.5383746,-0.0108586
2026-06-18T10:05:10.299993,+0.09,-0.21,-0.95,51.5383746,-0.0108586
2026-06-18T10:05:10.359318,+0.05,-0.11,-1.19,51.5383746,-0.0108586
2026-06-18T10:05:10.420313,+0.16,-0.25,-1.01,51.5383746,-0.0108586
2026-06-18T10:05:10.479965,+0.06,-0.13,-1.04,51.5383746,-0.0108586
2026-06-18T10:05:10.539892,+0.15,-0.12,-1.03,51.5383746,-0.0108586
2026-06-18T10:05:10.630557,+0.12,-0.24,-0.95,51.5383746,-0.0108586
2026-06-18T10:05:10.689090,+0.05,-0.21,-1.05,51.5383746,-0.0108586
2026-06-18T10:05:10.749494,+0.13,-0.15,-0.99,51.5383746,-0.0108586
2026-06-18T10:05:10.812757,+0.07,-0.16,-0.96,51.5383637,-0.0109092
2026-06-18T10:05:10.869993,+0.13,-0.20,-1.10,51.5383637,-0.0109092
2026-06-18T10:05:10.966895,+0.05,-0.26,-0.93,51.5383637,-0.0109092
2026-06-18T10:05:11.019553,+0.06,-0.13,-0.91,51.5383637,-0.0109092
2026-06-18T10:05:11.083083,+0.14,-0.19,-1.00,51.5383637,-0.0109092
2026-06-18T10:05:11.143757,+0.09,-0.16,-1.10,51.5383637,-0.0109092
2026-06-18T10:05:11.200589,+0.10,-0.23,-0.99,51.5383637,-0.0109092
2026-06-18T10:05:11.290269,+0.11,-0.19,-0.88,51.5383637,-0.0109092
2026-06-18T10:05:11.349203,+0.07,-0.23,-1.00,51.5383637,-0.0109092
2026-06-18T10:05:11.409321,+0.08,-0.26,-1.11,51.5383637,-0.0109092
2026-06-18T10:05:11.470434,+0.09,-0.17,-0.86,51.5383637,-0.0109092
2026-06-18T10:05:11.530313,+0.10,-0.16,-0.96,51.5383637,-0.0109092
2026-06-18T10:05:11.620249,+0.11,-0.18,-1.02,51.5383637,-0.0109092
2026-06-18T10:05:11.679791,+0.09,-0.11,-1.11,51.5383637,-0.0109092
2026-06-18T10:05:11.743590,+0.10,-0.17,-0.97,51.5383637,-0.0109092
2026-06-18T10:05:11.800902,+0.18,-0.28,-0.91,51.5383527,-0.0109605
2026-06-18T10:05:11.891168,+0.03,-0.19,-1.17,51.5383527,-0.0109605
2026-06-18T10:05:11.950931,+0.14,-0.24,-0.90,51.5383527,-0.0109605
2026-06-18T10:05:12.010849,+0.10,-0.28,-0.92,51.5383527,-0.0109605
2026-06-18T10:05:12.070411,-0.01,-0.10,-1.29,51.5383527,-0.0109605
2026-06-18T10:05:12.131893,+0.21,-0.22,-0.99,51.5383527,-0.0109605
2026-06-18T10:05:12.219330,+0.10,-0.19,-1.05,51.5383527,-0.0109605
2026-06-18T10:05:12.279604,+0.12,-0.22,-0.99,51.5383527,-0.0109605
2026-06-18T10:05:12.339580,+0.12,-0.31,-0.96,51.5383527,-0.0109605
2026-06-18T10:05:12.400060,+0.02,-0.17,-0.99,51.5383527,-0.0109605
2026-06-18T10:05:12.460834,+0.02,-0.20,-1.11,51.5383527,-0.0109605
2026-06-18T10:05:12.552523,+0.09,-0.21,-0.95,51.5383527,-0.0109605
2026-06-18T10:05:12.610790,+0.15,-0.26,-0.97,51.5383527,-0.0109605
2026-06-18T10:05:12.671624,+0.13,-0.24,-0.94,51.5383527,-0.0109605
2026-06-18T10:05:12.731054,-0.02,-0.05,-0.95,51.5383527,-0.0109605
2026-06-18T10:05:12.789116,+0.12,-0.22,-0.99,51.5383527,-0.0109605
2026-06-18T10:05:12.879937,+0.10,-0.22,-1.11,51.5383425,-0.0110156
2026-06-18T10:05:12.940112,+0.24,-0.33,-0.99,51.5383425,-0.0110156
2026-06-18T10:05:13.000553,+0.14,-0.24,-0.91,51.5383425,-0.0110156
2026-06-18T10:05:13.061491,+0.17,-0.19,-0.83,51.5383425,-0.0110156
2026-06-18T10:05:13.122393,+0.09,-0.18,-0.89,51.5383425,-0.0110156
2026-06-18T10:05:13.211031,+0.14,-0.28,-1.16,51.5383425,-0.0110156
2026-06-18T10:05:13.271554,-0.04,-0.14,-1.15,51.5383425,-0.0110156
2026-06-18T10:05:13.331510,+0.10,-0.21,-0.98,51.5383425,-0.0110156
2026-06-18T10:05:13.390949,+0.13,-0.24,-1.01,51.5383425,-0.0110156
2026-06-18T10:05:13.454538,+0.14,-0.25,-1.21,51.5383425,-0.0110156
2026-06-18T10:05:13.540150,+0.13,-0.22,-1.00,51.5383425,-0.0110156
2026-06-18T10:05:13.601515,+0.11,-0.30,-0.99,51.5383425,-0.0110156
2026-06-18T10:05:13.661009,+0.00,-0.08,-1.00,51.5383425,-0.0110156
2026-06-18T10:05:13.721624,+0.10,-0.15,-1.02,51.5383425,-0.0110156
2026-06-18T10:05:13.810526,+0.12,-0.17,-0.96,51.5383333,-0.0110722
2026-06-18T10:05:13.871257,+0.21,-0.24,-0.91,51.5383333,-0.0110722
2026-06-18T10:05:13.931482,+0.12,-0.10,-0.91,51.5383333,-0.0110722
2026-06-18T10:05:13.990790,+0.11,-0.20,-1.00,51.5383333,-0.0110722
2026-06-18T10:05:14.080883,+0.16,-0.26,-0.82,51.5383333,-0.0110722
2026-06-18T10:05:14.139710,+0.11,-0.16,-0.90,51.5383333,-0.0110722
2026-06-18T10:05:14.200646,+0.03,-0.16,-0.94,51.5383333,-0.0110722
2026-06-18T10:05:14.261672,+0.11,-0.24,-0.83,51.5383333,-0.0110722
2026-06-18T10:05:14.322171,+0.10,-0.13,-1.21,51.5383333,-0.0110722
2026-06-18T10:05:14.380887,+0.77,-1.11,+0.60,51.5383333,-0.0110722
2026-06-18T10:05:14.472156,+0.05,-0.12,-1.00,51.5383333,-0.0110722
2026-06-18T10:05:14.530786,+0.04,-0.14,-1.03,51.5383333,-0.0110722
2026-06-18T10:05:14.591681,+0.21,-0.33,-0.82,51.5383333,-0.0110722
2026-06-18T10:05:14.651987,+0.06,-0.66,-1.54,51.5383333,-0.0110722
2026-06-18T10:05:14.713,-0.01,-0.27,-1.32,51.5383333,-0.0110722
2026-06-18T10:05:14.800103,+0.29,-0.20,-0.61,51.5383256,-0.0111235
2026-06-18T10:05:14.859857,+0.11,-0.30,-0.99,51.5383256,-0.0111235
2026-06-18T10:05:14.920430,+0.16,-0.20,-1.12,51.5383256,-0.0111235
2026-06-18T10:05:14.981250,+0.09,-0.21,-0.99,51.5383256,-0.0111235
2026-06-18T10:05:15.041412,+0.17,-0.22,-1.12,51.5383256,-0.0111235
2026-06-18T10:05:15.130921,+0.24,-0.18,-0.91,51.5383256,-0.0111235
2026-06-18T10:05:15.190713,+0.10,-0.09,-0.99,51.5383256,-0.0111235
2026-06-18T10:05:15.251360,+0.11,-0.12,-0.95,51.5383256,-0.0111235
2026-06-18T10:05:15.310802,+0.09,-0.25,-1.01,51.5383256,-0.0111235
2026-06-18T10:05:15.371510,-0.08,-0.04,-1.11,51.5383256,-0.0111235
2026-06-18T10:05:15.461489,+0.04,-0.12,-0.88,51.5383256,-0.0111235
2026-06-18T10:05:15.521451,+0.06,-0.19,-1.02,51.5383256,-0.0111235
2026-06-18T10:05:15.580395,+0.09,-0.25,-0.83,51.5383256,-0.0111235
2026-06-18T10:05:15.641256,+0.14,-0.25,-0.91,51.5383256,-0.0111235
2026-06-18T10:05:15.700465,+0.03,-0.19,-0.82,51.5383256,-0.0111235
2026-06-18T10:05:15.791098,+0.02,-0.16,-0.93,51.5383256,-0.0111235
2026-06-18T10:05:15.850827,+0.16,-0.17,-0.80,51.5383216,-0.0111815
2026-06-18T10:05:15.911218,+0.09,-0.22,-0.99,51.5383216,-0.0111815
2026-06-18T10:05:15.970705,+0.10,-0.21,-0.90,51.5383216,-0.0111815
2026-06-18T10:05:16.060561,+0.00,-0.11,-1.23,51.5383216,-0.0111815
2026-06-18T10:05:16.120469,-0.02,+0.07,-1.29,51.5383216,-0.0111815
2026-06-18T10:05:16.179990,+0.15,-0.36,-1.25,51.5383216,-0.0111815
2026-06-18T10:05:16.241912,+0.11,-0.30,-1.07,51.5383216,-0.0111815
2026-06-18T10:05:16.300886,+0.23,-0.29,-0.70,51.5383216,-0.0111815
2026-06-18T10:05:16.392015,+0.16,-0.17,-0.87,51.5383216,-0.0111815
2026-06-18T10:05:16.450810,+0.13,-0.21,-0.93,51.5383216,-0.0111815
2026-06-18T10:05:16.510703,+0.19,-0.25,-1.08,51.5383216,-0.0111815
2026-06-18T10:05:16.571172,+0.01,-0.14,-1.11,51.5383216,-0.0111815
2026-06-18T10:05:16.631572,+0.17,-0.29,-0.90,51.5383216,-0.0111815
2026-06-18T10:05:16.720607,+0.13,-0.25,-0.87,51.5383216,-0.0111815
2026-06-18T10:05:16.779985,-0.01,-0.17,-1.15,51.5383216,-0.0111815
2026-06-18T10:05:16.839972,+0.28,-0.39,-0.89,51.5383132,-0.0112406
2026-06-18T10:05:16.901217,+0.09,-0.17,-0.73,51.5383132,-0.0112406
2026-06-18T10:05:16.961001,+0.11,-0.22,-1.18,51.5383132,-0.0112406
2026-06-18T10:05:17.051660,+0.05,-0.18,-0.89,51.5383132,-0.0112406
2026-06-18T10:05:17.109911,+0.12,-0.17,-1.10,51.5383132,-0.0112406
2026-06-18T10:05:17.171575,+0.14,-0.22,-0.77,51.5383132,-0.0112406
2026-06-18T10:05:17.234338,+0.25,-0.29,-1.17,51.5383132,-0.0112406
2026-06-18T10:05:17.292997,+0.14,-0.09,-0.90,51.5383132,-0.0112406
2026-06-18T10:05:17.382374,+0.18,-0.26,-0.97,51.5383132,-0.0112406
2026-06-18T10:05:17.441032,+0.12,-0.24,-0.88,51.5383132,-0.0112406
2026-06-18T10:05:17.501439,+0.01,-0.22,-1.15,51.5383132,-0.0112406
2026-06-18T10:05:17.563339,+0.01,-0.13,-0.87,51.5383132,-0.0112406
2026-06-18T10:05:17.622284,+0.16,-0.22,-0.81,51.5383132,-0.0112406
2026-06-18T10:05:17.716176,+0.03,-0.20,-1.06,51.5383132,-0.0112406
2026-06-18T10:05:17.772331,+0.15,-0.28,-1.10,51.5383132,-0.0112406
2026-06-18T10:05:17.830382,+0.14,-0.27,-0.83,51.5383028,-0.0112977
2026-06-18T10:05:17.893475,+0.01,-0.07,-1.05,51.5383028,-0.0112977
2026-06-18T10:05:17.981253,+0.10,-0.22,-1.01,51.5383028,-0.0112977
2026-06-18T10:05:18.044649,+0.12,-0.18,-1.26,51.5383028,-0.0112977
2026-06-18T10:05:18.103263,+0.01,-0.05,-0.90,51.5383028,-0.0112977
2026-06-18T10:05:18.163406,+0.14,-0.25,-0.96,51.5383028,-0.0112977
2026-06-18T10:05:18.256596,+0.17,-0.22,-1.03,51.5383028,-0.0112977
2026-06-18T10:05:18.313578,+0.19,-0.29,-1.06,51.5383028,-0.0112977
2026-06-18T10:05:18.372055,+0.14,-0.22,-0.93,51.5383028,-0.0112977
2026-06-18T10:05:18.436761,+0.17,-0.21,-0.86,51.5383028,-0.0112977
2026-06-18T10:05:18.496495,+0.07,-0.12,-1.00,51.5383028,-0.0112977
2026-06-18T10:05:18.582897,+0.07,-0.20,-1.05,51.5383028,-0.0112977
2026-06-18T10:05:18.640994,+0.14,-0.18,-0.95,51.5383028,-0.0112977
2026-06-18T10:05:18.701529,+0.08,-0.21,-0.98,51.5383028,-0.0112977
2026-06-18T10:05:18.761891,+0.07,-0.21,-1.08,51.5383028,-0.0112977
2026-06-18T10:05:18.819688,+0.17,-0.26,-0.84,51.5382925,-0.0113542
2026-06-18T10:05:18.940556,+0.12,-0.25,-0.86,51.5382925,-0.0113542
2026-06-18T10:05:18.969311,+0.12,-0.29,-1.00,51.5382925,-0.0113542
2026-06-18T10:05:19.031337,+0.12,-0.17,-0.98,51.5382925,-0.0113542
2026-06-18T10:05:19.091588,+0.03,-0.05,-1.09,51.5382925,-0.0113542
2026-06-18T10:05:19.151791,+0.11,-0.27,-0.91,51.5382925,-0.0113542
2026-06-18T10:05:19.240322,+0.17,-0.23,-0.89,51.5382925,-0.0113542
2026-06-18T10:05:19.299516,+0.04,-0.13,-1.02,51.5382925,-0.0113542
2026-06-18T10:05:19.362068,+0.08,-0.28,-1.03,51.5382925,-0.0113542
2026-06-18T10:05:19.423397,+0.13,-0.18,-1.12,51.5382925,-0.0113542
2026-06-18T10:05:19.482875,+0.19,-0.23,-0.86,51.5382925,-0.0113542
2026-06-18T10:05:19.572436,+0.08,-0.30,-1.21,51.5382925,-0.0113542
2026-06-18T10:05:19.632994,+0.10,-0.16,-1.00,51.5382925,-0.0113542
2026-06-18T10:05:19.694159,+0.07,-0.21,-1.00,51.5382925,-0.0113542
2026-06-18T10:05:19.750043,+0.05,-0.14,-0.97,51.5382925,-0.0113542
2026-06-18T10:05:19.814565,+0.11,-0.32,-0.94,51.5382925,-0.0113542
2026-06-18T10:05:19.902671,+0.14,-0.19,-0.90,51.5382825,-0.0114109
2026-06-18T10:05:19.961042,+0.09,-0.26,-0.81,51.5382825,-0.0114109
2026-06-18T10:05:20.021586,+0.11,-0.17,-1.14,51.5382825,-0.0114109
2026-06-18T10:05:20.084469,+0.16,-0.21,-0.94,51.5382825,-0.0114109
2026-06-18T10:05:20.171539,+0.15,-0.10,-0.89,51.5382825,-0.0114109
2026-06-18T10:05:20.235237,+0.15,-0.10,-0.91,51.5382825,-0.0114109
2026-06-18T10:05:20.326405,+0.12,-0.21,-0.92,51.5382825,-0.0114109
2026-06-18T10:05:20.348520,+0.11,-0.09,-1.05,51.5382825,-0.0114109
2026-06-18T10:05:20.410740,+0.09,-0.18,-1.09,51.5382825,-0.0114109
2026-06-18T10:05:20.501282,+0.19,-0.19,-0.88,51.5382825,-0.0114109
2026-06-18T10:05:20.560331,-0.01,-0.12,-1.25,51.5382825,-0.0114109
2026-06-18T10:05:20.622097,-0.03,-0.16,-0.95,51.5382825,-0.0114109
2026-06-18T10:05:20.679785,+0.05,-0.17,-0.98,51.5382825,-0.0114109
2026-06-18T10:05:20.740442,+0.06,-0.20,-1.02,51.5382825,-0.0114109
2026-06-18T10:05:20.831101,-0.00,-0.15,-1.39,51.5382694,-0.0114672
2026-06-18T10:05:20.889177,+0.22,-0.35,-0.90,51.5382694,-0.0114672
2026-06-18T10:05:20.981030,+0.20,-0.36,-0.76,51.5382694,-0.0114672
2026-06-18T10:05:21.010937,+0.16,-0.41,-0.77,51.5382694,-0.0114672
2026-06-18T10:05:21.071316,+0.18,-0.20,-1.13,51.5382694,-0.0114672
2026-06-18T10:05:21.161080,+0.08,-0.19,-0.99,51.5382694,-0.0114672
2026-06-18T10:05:21.221598,+0.06,-0.17,-0.93,51.5382694,-0.0114672
2026-06-18T10:05:21.281668,+0.11,-0.14,-0.96,51.5382694,-0.0114672
2026-06-18T10:05:21.342621,+0.16,-0.25,-0.96,51.5382694,-0.0114672
2026-06-18T10:05:21.400500,+0.17,-0.27,-0.91,51.5382694,-0.0114672
2026-06-18T10:05:21.495005,+0.16,-0.22,-0.94,51.5382694,-0.0114672
2026-06-18T10:05:21.550963,+0.10,-0.21,-0.89,51.5382694,-0.0114672
2026-06-18T10:05:21.612503,+0.11,-0.30,-1.00,51.5382694,-0.0114672
2026-06-18T10:05:21.672795,+0.11,-0.27,-0.94,51.5382694,-0.0114672
2026-06-18T10:05:21.734001,+0.14,-0.24,-0.99,51.5382694,-0.0114672
2026-06-18T10:05:21.821921,+0.05,-0.08,-0.79,51.5382581,-0.0115231
2026-06-18T10:05:21.881084,+0.15,-0.21,-1.10,51.5382581,-0.0115231
2026-06-18T10:05:21.945471,+0.01,-0.05,-1.19,51.5382581,-0.0115231
2026-06-18T10:05:22.001213,+0.09,-0.18,-1.09,51.5382581,-0.0115231
2026-06-18T10:05:22.091563,+0.11,-0.24,-0.81,51.5382581,-0.0115231
2026-06-18T10:05:22.151089,+0.11,-0.25,-0.86,51.5382581,-0.0115231
2026-06-18T10:05:22.211159,+0.16,-0.25,-1.15,51.5382581,-0.0115231
2026-06-18T10:05:22.270292,+0.09,-0.24,-0.94,51.5382581,-0.0115231
2026-06-18T10:05:22.333083,+0.19,-0.19,-1.02,51.5382581,-0.0115231
2026-06-18T10:05:22.420980,+0.16,-0.19,-0.83,51.5382581,-0.0115231
2026-06-18T10:05:22.480511,+0.17,-0.30,-1.13,51.5382581,-0.0115231
2026-06-18T10:05:22.541352,+0.10,-0.27,-1.15,51.5382581,-0.0115231
2026-06-18T10:05:22.607816,+0.16,-0.24,-0.92,51.5382581,-0.0115231
2026-06-18T10:05:22.661930,+0.04,-0.19,-0.95,51.5382581,-0.0115231
2026-06-18T10:05:22.757759,+0.05,-0.26,-1.09,51.5382581,-0.0115231
2026-06-18T10:05:22.812938,+0.11,-0.24,-0.96,51.5382486,-0.0115758
2026-06-18T10:05:22.871820,+0.18,-0.24,-0.87,51.5382486,-0.0115758
2026-06-18T10:05:22.935337,+0.02,-0.11,-1.02,51.5382486,-0.0115758
2026-06-18T10:05:23.023270,+0.13,-0.32,-0.93,51.5382486,-0.0115758
2026-06-18T10:05:23.081411,+0.13,-0.28,-0.99,51.5382486,-0.0115758
2026-06-18T10:05:23.140577,+0.04,-0.15,-1.01,51.5382486,-0.0115758
2026-06-18T10:05:23.200518,+0.02,-0.10,-0.91,51.5382486,-0.0115758
2026-06-18T10:05:23.260046,+0.09,-0.18,-1.00,51.5382486,-0.0115758
2026-06-18T10:05:23.323,+0.15,-0.29,-1.09,51.5382486,-0.0115758
2026-06-18T10:05:23.411812,+0.21,-0.32,-0.88,51.5382486,-0.0115758
2026-06-18T10:05:23.471560,+0.15,-0.16,-0.82,51.5382486,-0.0115758
2026-06-18T10:05:23.532261,+0.14,-0.21,-1.03,51.5382486,-0.0115758
2026-06-18T10:05:23.593505,+0.13,-0.20,-1.10,51.5382486,-0.0115758
2026-06-18T10:05:23.654690,+0.13,-0.14,-0.98,51.5382486,-0.0115758
2026-06-18T10:05:23.741854,+0.10,-0.13,-0.89,51.5382486,-0.0115758
2026-06-18T10:05:23.801191,+0.03,-0.30,-0.99,51.5382486,-0.0115758
2026-06-18T10:05:23.862111,+0.15,-0.23,-0.97,51.5382354,-0.0116285
2026-06-18T10:05:23.921153,+0.01,-0.08,-0.87,51.5382354,-0.0116285
2026-06-18T10:05:23.979946,+0.01,-0.25,-1.10,51.5382354,-0.0116285
2026-06-18T10:05:24.072629,+0.09,-0.17,-1.12,51.5382354,-0.0116285
2026-06-18T10:05:24.129100,+0.06,-0.23,-0.83,51.5382354,-0.0116285
2026-06-18T10:05:24.192877,+0.08,-0.38,-0.94,51.5382354,-0.0116285
2026-06-18T10:05:24.250898,-0.01,-0.15,-1.07,51.5382354,-0.0116285
2026-06-18T10:05:24.346952,+0.11,-0.16,-1.04,51.5382354,-0.0116285
2026-06-18T10:05:24.408263,+0.02,-0.14,-1.12,51.5382354,-0.0116285
2026-06-18T10:05:24.493852,+0.13,-0.18,-0.65,51.5382354,-0.0116285
2026-06-18T10:05:24.524633,+0.18,-0.15,-0.98,51.5382354,-0.0116285
2026-06-18T10:05:24.580584,+0.23,-0.29,-0.93,51.5382354,-0.0116285
2026-06-18T10:05:24.670392,+0.34,-0.17,-0.64,51.5382354,-0.0116285
2026-06-18T10:05:24.760836,+0.14,-0.15,-0.84,51.5382354,-0.0116285
2026-06-18T10:05:24.790779,+0.01,-0.16,-0.87,51.5382354,-0.0116285
2026-06-18T10:05:24.849362,+0.06,-0.20,-1.11,51.5382204,-0.0116802
2026-06-18T10:05:24.911492,+0.08,-0.26,-0.88,51.5382204,-0.0116802
2026-06-18T10:05:25.003058,+0.02,-0.25,-0.88,51.5382204,-0.0116802
2026-06-18T10:05:25.061466,-0.18,-0.12,-1.34,51.5382204,-0.0116802
2026-06-18T10:05:25.123149,+0.19,-0.25,-1.00,51.5382204,-0.0116802
2026-06-18T10:05:25.214047,+0.09,-0.19,-1.10,51.5382204,-0.0116802
2026-06-18T10:05:25.240708,+0.06,-0.26,-0.94,51.5382204,-0.0116802
2026-06-18T10:05:25.332972,+0.02,-0.16,-0.97,51.5382204,-0.0116802
2026-06-18T10:05:25.392990,+0.06,-0.16,-1.05,51.5382204,-0.0116802
2026-06-18T10:05:25.484401,+0.16,-0.28,-0.76,51.5382204,-0.0116802
2026-06-18T10:05:25.510629,+0.23,-0.25,-1.00,51.5382204,-0.0116802
2026-06-18T10:05:25.574081,+0.21,-0.13,-0.92,51.5382204,-0.0116802
2026-06-18T10:05:25.664459,+0.30,-0.13,-0.84,51.5382204,-0.0116802
2026-06-18T10:05:25.722964,-0.04,-0.16,-1.15,51.5382204,-0.0116802
2026-06-18T10:05:25.782664,-0.06,-0.19,-1.12,51.5382204,-0.0116802
2026-06-18T10:05:25.840756,+0.23,-0.27,-0.84,51.5382054,-0.0117322
2026-06-18T10:05:25.904560,-0.14,+0.09,-0.87,51.5382054,-0.0117322
2026-06-18T10:05:25.991683,+0.09,-0.27,-1.12,51.5382054,-0.0117322
2026-06-18T10:05:26.051218,+0.17,-0.35,-0.88,51.5382054,-0.0117322
2026-06-18T10:05:26.114057,+0.05,-0.20,-0.86,51.5382054,-0.0117322
2026-06-18T10:05:26.172153,+0.08,-0.26,-0.96,51.5382054,-0.0117322
2026-06-18T10:05:26.294391,+0.08,-0.36,-0.99,51.5382054,-0.0117322
2026-06-18T10:05:26.320035,+0.07,-0.18,-0.97,51.5382054,-0.0117322
2026-06-18T10:05:26.384836,+0.11,-0.25,-0.76,51.5382054,-0.0117322
2026-06-18T10:05:26.443345,+0.08,-0.10,-0.96,51.5382054,-0.0117322
2026-06-18T10:05:26.530132,+0.08,-0.16,-1.17,51.5382054,-0.0117322
2026-06-18T10:05:26.591083,+0.18,-0.25,-0.99,51.5382054,-0.0117322
2026-06-18T10:05:26.653110,+0.15,-0.12,-1.07,51.5382054,-0.0117322
2026-06-18T10:05:26.712906,+0.04,-0.13,-1.06,51.5382054,-0.0117322
2026-06-18T10:05:26.772665,+0.24,-0.33,-0.76,51.5382054,-0.0117322
2026-06-18T10:05:26.862228,+0.08,-0.25,-1.12,51.5381924,-0.0117827
2026-06-18T10:05:26.923827,+0.00,-0.03,-1.00,51.5381924,-0.0117827
2026-06-18T10:05:26.981893,+0.12,-0.32,-0.85,51.5381924,-0.0117827
2026-06-18T10:05:27.042776,+0.13,-0.24,-0.59,51.5381924,-0.0117827
2026-06-18T10:05:27.103140,+0.03,-0.08,-1.31,51.5381924,-0.0117827
2026-06-18T10:05:27.191729,+0.10,-0.20,-1.03,51.5381924,-0.0117827
2026-06-18T10:05:27.253975,+0.07,-0.21,-0.92,51.5381924,-0.0117827
2026-06-18T10:05:27.313332,-0.06,-0.09,-1.00,51.5381924,-0.0117827
2026-06-18T10:05:27.372608,+0.11,-0.29,-1.12,51.5381924,-0.0117827
2026-06-18T10:05:27.429865,-0.07,-0.06,-1.02,51.5381924,-0.0117827
2026-06-18T10:05:27.519922,+0.14,-0.20,-1.07,51.5381924,-0.0117827
2026-06-18T10:05:27.581399,+0.12,-0.19,-0.73,51.5381924,-0.0117827
2026-06-18T10:05:27.641637,+0.27,-0.33,-1.01,51.5381924,-0.0117827
2026-06-18T10:05:27.704783,+0.18,-0.28,-0.88,51.5381924,-0.0117827
2026-06-18T10:05:27.764164,+0.24,-0.52,-0.79,51.5381924,-0.0117827
2026-06-18T10:05:27.852450,+0.02,+0.01,-0.94,51.5381808,-0.0118225
2026-06-18T10:05:27.909091,+0.23,-0.21,-1.18,51.5381808,-0.0118225
2026-06-18T10:05:27.969352,-0.19,-0.00,-1.34,51.5381808,-0.0118225
2026-06-18T10:05:28.030298,-0.19,+0.06,-0.94,51.5381808,-0.0118225
2026-06-18T10:05:28.100704,+0.20,-0.34,-0.65,51.5381808,-0.0118225
2026-06-18T10:05:28.183712,+0.06,-0.21,-0.96,51.5381808,-0.0118225
2026-06-18T10:05:28.243545,+0.23,-0.35,-0.80,51.5381808,-0.0118225
2026-06-18T10:05:28.304324,+0.06,-0.22,-1.12,51.5381808,-0.0118225
2026-06-18T10:05:28.360913,+0.04,-0.17,-0.91,51.5381808,-0.0118225
2026-06-18T10:05:28.454273,+0.09,-0.11,-0.94,51.5381808,-0.0118225
2026-06-18T10:05:28.513702,+0.01,-0.05,-1.06,51.5381808,-0.0118225
2026-06-18T10:05:28.571227,+0.12,-0.10,-1.04,51.5381808,-0.0118225
2026-06-18T10:05:28.630093,+0.20,-0.22,-0.91,51.5381808,-0.0118225
2026-06-18T10:05:28.694794,+0.20,-0.22,-1.09,51.5381808,-0.0118225
2026-06-18T10:05:28.781921,+0.06,-0.14,-0.96,51.5381808,-0.0118225
2026-06-18T10:05:28.841045,+0.08,-0.21,-1.06,51.5381648,-0.011866
2026-06-18T10:05:28.904057,+0.15,-0.17,-0.86,51.5381648,-0.011866
2026-06-18T10:05:28.961190,+0.02,-0.21,-1.23,51.5381648,-0.011866
2026-06-18T10:05:29.022328,+0.03,-0.09,-0.90,51.5381648,-0.011866
2026-06-18T10:05:29.111965,+0.10,-0.26,-0.87,51.5381648,-0.011866
2026-06-18T10:05:29.172865,+0.03,-0.17,-1.14,51.5381648,-0.011866
2026-06-18T10:05:29.238657,+0.13,-0.29,-1.02,51.5381648,-0.011866
2026-06-18T10:05:29.291121,+0.11,-0.20,-0.80,51.5381648,-0.011866
2026-06-18T10:05:29.353196,+0.05,-0.18,-1.02,51.5381648,-0.011866
2026-06-18T10:05:29.470755,+0.09,-0.17,-0.93,51.5381648,-0.011866
2026-06-18T10:05:29.502158,+0.06,-0.22,-0.92,51.5381648,-0.011866
2026-06-18T10:05:29.563364,+0.19,-0.20,-0.81,51.5381648,-0.011866
2026-06-18T10:05:29.623073,+0.07,-0.12,-0.87,51.5381648,-0.011866
2026-06-18T10:05:29.683221,+0.09,-0.18,-1.02,51.5381648,-0.011866
2026-06-18T10:05:29.771113,-0.02,-0.16,-1.42,51.5381648,-0.011866
2026-06-18T10:05:29.829974,+0.02,-0.13,-1.16,51.538151,-0.0119182
2026-06-18T10:05:29.893711,+0.25,-0.27,-0.61,51.538151,-0.0119182
2026-06-18T10:05:29.953663,+0.06,-0.08,-0.99,51.538151,-0.0119182
2026-06-18T10:05:30.013975,+0.11,-0.32,-1.08,51.538151,-0.0119182
2026-06-18T10:05:30.104666,+0.02,-0.14,-1.18,51.538151,-0.0119182
2026-06-18T10:05:30.161285,+0.11,-0.25,-0.87,51.538151,-0.0119182
2026-06-18T10:05:30.221254,+0.02,-0.08,-0.92,51.538151,-0.0119182
2026-06-18T10:05:30.283557,+0.12,-0.25,-1.07,51.538151,-0.0119182
2026-06-18T10:05:30.371239,+0.19,-0.27,-0.88,51.538151,-0.0119182
2026-06-18T10:05:30.430867,+0.07,-0.19,-1.11,51.538151,-0.0119182
2026-06-18T10:05:30.493637,+0.15,-0.26,-0.77,51.538151,-0.0119182
2026-06-18T10:05:30.550771,+0.07,-0.18,-1.11,51.538151,-0.0119182
2026-06-18T10:05:30.614046,+0.14,-0.26,-0.87,51.538151,-0.0119182
2026-06-18T10:05:30.702181,+0.12,-0.19,-0.99,51.538151,-0.0119182
2026-06-18T10:05:30.760905,+0.04,-0.12,-0.96,51.538151,-0.0119182
2026-06-18T10:05:30.820715,+0.23,-0.35,-0.95,51.5381377,-0.0119726
2026-06-18T10:05:30.882657,+0.16,-0.23,-1.07,51.5381377,-0.0119726
2026-06-18T10:05:30.945146,+0.16,-0.28,-0.62,51.5381377,-0.0119726
2026-06-18T10:05:31.035647,+0.10,-0.09,-0.90,51.5381377,-0.0119726
2026-06-18T10:05:31.091540,+0.02,-0.09,-1.07,51.5381377,-0.0119726
2026-06-18T10:05:31.153231,+0.07,-0.16,-0.90,51.5381377,-0.0119726
2026-06-18T10:05:31.212958,+0.11,-0.22,-1.00,51.5381377,-0.0119726
2026-06-18T10:05:31.274532,+0.07,-0.19,-0.91,51.5381377,-0.0119726
2026-06-18T10:05:31.363472,+0.08,-0.22,-1.02,51.5381377,-0.0119726
2026-06-18T10:05:31.420436,+0.06,-0.13,-0.86,51.5381377,-0.0119726
2026-06-18T10:05:31.483763,+0.09,-0.22,-0.96,51.5381377,-0.0119726
2026-06-18T10:05:31.572299,+0.10,-0.18,-1.21,51.5381377,-0.0119726
2026-06-18T10:05:31.602834,+0.06,-0.15,-1.14,51.5381377,-0.0119726
2026-06-18T10:05:31.689752,+0.15,-0.18,-0.86,51.5381377,-0.0119726
2026-06-18T10:05:31.752383,+0.13,-0.17,-1.01,51.5381377,-0.0119726
2026-06-18T10:05:31.809831,+0.14,-0.18,-1.09,51.5381244,-0.0120276
2026-06-18T10:05:31.869066,+0.01,-0.20,-1.12,51.5381244,-0.0120276
2026-06-18T10:05:31.931509,+0.18,-0.27,-0.98,51.5381244,-0.0120276
2026-06-18T10:05:32.019414,+0.15,-0.28,-0.92,51.5381244,-0.0120276
2026-06-18T10:05:32.080912,-0.05,-0.08,-1.13,51.5381244,-0.0120276
2026-06-18T10:05:32.142303,+0.09,-0.28,-0.99,51.5381244,-0.0120276
2026-06-18T10:05:32.202284,+0.10,-0.13,-0.86,51.5381244,-0.0120276
2026-06-18T10:05:32.294660,+0.11,-0.22,-1.02,51.5381244,-0.0120276
2026-06-18T10:05:32.351957,+0.07,-0.20,-0.96,51.5381244,-0.0120276
2026-06-18T10:05:32.410645,+0.07,-0.18,-1.07,51.5381244,-0.0120276
2026-06-18T10:05:32.470832,+0.10,-0.21,-0.88,51.5381244,-0.0120276
2026-06-18T10:05:32.534896,+0.09,-0.22,-0.84,51.5381244,-0.0120276
2026-06-18T10:05:32.624531,+0.03,-0.15,-0.79,51.5381244,-0.0120276
2026-06-18T10:05:32.684015,+0.09,-0.21,-1.10,51.5381244,-0.0120276
2026-06-18T10:05:32.742409,+0.13,-0.29,-0.91,51.5381244,-0.0120276
2026-06-18T10:05:32.799568,+0.22,-0.20,-0.92,51.5381111,-0.0120814
2026-06-18T10:05:32.861248,+0.03,+0.04,-0.95,51.5381111,-0.0120814
2026-06-18T10:05:32.955977,+0.20,-0.24,-1.07,51.5381111,-0.0120814
2026-06-18T10:05:33.011819,+0.11,-0.14,-1.02,51.5381111,-0.0120814
2026-06-18T10:05:33.076136,+0.38,-0.35,-0.31,51.5381111,-0.0120814
2026-06-18T10:05:33.133626,-0.13,-0.04,-1.19,51.5381111,-0.0120814
2026-06-18T10:05:33.225533,+0.01,-0.24,-1.20,51.5381111,-0.0120814
2026-06-18T10:05:33.280933,+0.17,-0.24,-0.56,51.5381111,-0.0120814
2026-06-18T10:05:33.344162,-0.03,+0.03,-1.17,51.5381111,-0.0120814
2026-06-18T10:05:33.402660,+0.06,-0.21,-1.22,51.5381111,-0.0120814
2026-06-18T10:05:33.461420,+0.11,-0.15,-0.85,51.5381111,-0.0120814
2026-06-18T10:05:33.554760,+0.16,-0.26,-0.77,51.5381111,-0.0120814
2026-06-18T10:05:33.613673,+0.18,-0.35,-0.79,51.5381111,-0.0120814
2026-06-18T10:05:33.675243,-0.28,+0.06,-1.93,51.5381111,-0.0120814
2026-06-18T10:05:33.733196,-0.03,-0.20,-1.14,51.5381111,-0.0120814
2026-06-18T10:05:33.790181,+0.12,-0.07,-0.95,51.5381111,-0.0120814
2026-06-18T10:05:33.886789,+0.23,-0.19,-0.87,51.5380996,-0.0121355
2026-06-18T10:05:33.942475,+0.05,+0.05,-0.93,51.5380996,-0.0121355
2026-06-18T10:05:34.003223,-0.06,+0.04,-1.34,51.5380996,-0.0121355
2026-06-18T10:05:34.062950,-0.00,-0.25,-1.15,51.5380996,-0.0121355
2026-06-18T10:05:34.125476,+0.16,-0.19,-0.86,51.5380996,-0.0121355
2026-06-18T10:05:34.211564,-0.24,+0.21,-1.59,51.5380996,-0.0121355
2026-06-18T10:05:34.272132,-0.07,-0.24,-0.87,51.5380996,-0.0121355
2026-06-18T10:05:34.331137,+0.14,-0.19,-0.92,51.5380996,-0.0121355
2026-06-18T10:05:34.391257,-0.04,-0.09,-0.96,51.5380996,-0.0121355
2026-06-18T10:05:34.481559,+0.10,-0.16,-0.77,51.5380996,-0.0121355
2026-06-18T10:05:34.539681,+0.00,+0.03,-0.88,51.5380996,-0.0121355
2026-06-18T10:05:34.598778,+0.22,-0.34,-0.58,51.5380996,-0.0121355
2026-06-18T10:05:34.660745,+0.07,-0.15,-0.81,51.5380996,-0.0121355
2026-06-18T10:05:34.722564,-0.01,-0.10,-0.93,51.5380996,-0.0121355
2026-06-18T10:05:34.809104,+0.14,-0.22,-0.97,51.5380863,-0.0121874
2026-06-18T10:05:34.874030,+0.15,-0.23,-0.77,51.5380863,-0.0121874
2026-06-18T10:05:34.932468,+0.14,-0.21,-1.21,51.5380863,-0.0121874
2026-06-18T10:05:34.997347,-0.00,-0.03,-1.27,51.5380863,-0.0121874
2026-06-18T10:05:35.055475,+0.19,-0.13,-1.00,51.5380863,-0.0121874
2026-06-18T10:05:35.144528,+0.18,-0.24,-1.12,51.5380863,-0.0121874
2026-06-18T10:05:35.203841,+0.16,-0.19,-1.33,51.5380863,-0.0121874
2026-06-18T10:05:35.264411,-0.02,-0.01,-1.17,51.5380863,-0.0121874
2026-06-18T10:05:35.322472,+0.03,-0.11,-1.21,51.5380863,-0.0121874
2026-06-18T10:05:35.385742,-0.02,-0.01,-0.93,51.5380863,-0.0121874
2026-06-18T10:05:35.474816,+0.11,-0.13,-0.90,51.5380863,-0.0121874
2026-06-18T10:05:35.530391,+0.08,-0.21,-1.01,51.5380863,-0.0121874
2026-06-18T10:05:35.594707,+0.20,-0.22,-0.18,51.5380863,-0.0121874
2026-06-18T10:05:35.652094,-0.07,+0.04,-0.83,51.5380863,-0.0121874
2026-06-18T10:05:35.710948,-0.09,-0.09,-1.37,51.5380863,-0.0121874
2026-06-18T10:05:35.800538,+0.16,-0.22,-1.03,51.5380863,-0.0121874
2026-06-18T10:05:35.859624,+0.04,-0.17,-0.86,51.5380763,-0.0122395
2026-06-18T10:05:35.923716,-0.19,+0.28,-0.93,51.5380763,-0.0122395
2026-06-18T10:05:35.984400,+0.08,-0.20,-0.72,51.5380763,-0.0122395
2026-06-18T10:05:36.040919,+0.14,-0.14,-1.10,51.5380763,-0.0122395
2026-06-18T10:05:36.137352,+0.14,-0.09,-0.79,51.5380763,-0.0122395
2026-06-18T10:05:36.224086,+0.03,-0.06,-1.29,51.5380763,-0.0122395
2026-06-18T10:05:36.251123,+0.10,-0.21,-1.22,51.5380763,-0.0122395
2026-06-18T10:05:36.313469,+0.14,-0.19,-1.09,51.5380763,-0.0122395
2026-06-18T10:05:36.403401,+0.14,-0.28,-0.85,51.5380763,-0.0122395
2026-06-18T10:05:36.461502,+0.29,-0.34,-0.72,51.5380763,-0.0122395
2026-06-18T10:05:36.522550,+0.01,-0.19,-1.25,51.5380763,-0.0122395
2026-06-18T10:05:36.580009,+0.12,-0.42,-1.46,51.5380763,-0.0122395
2026-06-18T10:05:36.671109,+0.22,-0.29,-0.74,51.5380763,-0.0122395
2026-06-18T10:05:36.730342,+0.06,-0.17,-0.95,51.5380763,-0.0122395
2026-06-18T10:05:36.789833,+0.03,-0.15,-1.16,51.5380763,-0.0122395
2026-06-18T10:05:36.854558,+0.26,-0.52,-1.17,51.5380646,-0.0122904
2026-06-18T10:05:36.914857,+0.08,-0.30,-1.03,51.5380646,-0.0122904
2026-06-18T10:05:37.002946,+0.10,-0.26,-1.17,51.5380646,-0.0122904
2026-06-18T10:05:37.062354,+0.06,-0.26,-0.89,51.5380646,-0.0122904
2026-06-18T10:05:37.124110,+0.01,-0.12,-0.97,51.5380646,-0.0122904
2026-06-18T10:05:37.182897,+0.32,-0.18,-0.64,51.5380646,-0.0122904
2026-06-18T10:05:37.244210,+0.20,-0.17,-0.88,51.5380646,-0.0122904
2026-06-18T10:05:37.335461,+0.11,-0.15,-1.00,51.5380646,-0.0122904
2026-06-18T10:05:37.391360,+0.26,-0.28,-0.96,51.5380646,-0.0122904
2026-06-18T10:05:37.455364,-0.02,-0.04,-0.92,51.5380646,-0.0122904
2026-06-18T10:05:37.512178,+0.22,-0.13,-0.97,51.5380646,-0.0122904
2026-06-18T10:05:37.573070,+0.17,-0.14,-0.93,51.5380646,-0.0122904
2026-06-18T10:05:37.664529,-0.00,-0.19,-1.06,51.5380646,-0.0122904
2026-06-18T10:05:37.722432,+0.10,-0.16,-1.01,51.5380646,-0.0122904
2026-06-18T10:05:37.781025,+0.07,-0.12,-0.77,51.5380646,-0.0122904
2026-06-18T10:05:37.875050,+0.03,-0.10,-1.10,51.5380513,-0.0123385
2026-06-18T10:05:37.899274,+0.16,-0.31,-0.74,51.5380513,-0.0123385
2026-06-18T10:05:37.992346,+0.18,-0.33,-0.76,51.5380513,-0.0123385
2026-06-18T10:05:38.052822,-0.04,-0.11,-0.92,51.5380513,-0.0123385
2026-06-18T10:05:38.119839,+0.05,-0.09,-0.91,51.5380513,-0.0123385
2026-06-18T10:05:38.171914,+0.09,-0.13,-1.04,51.5380513,-0.0123385
2026-06-18T10:05:38.231008,+0.10,-0.17,-1.10,51.5380513,-0.0123385
2026-06-18T10:05:38.323533,+0.10,-0.09,-0.91,51.5380513,-0.0123385
2026-06-18T10:05:38.381634,+0.04,-0.15,-1.09,51.5380513,-0.0123385
2026-06-18T10:05:38.444904,+0.05,-0.20,-1.30,51.5380513,-0.0123385
2026-06-18T10:05:38.501403,+0.23,-0.37,-0.59,51.5380513,-0.0123385
2026-06-18T10:05:38.593569,+0.16,-0.14,-0.71,51.5380513,-0.0123385
2026-06-18T10:05:38.654549,+0.07,-0.18,-1.17,51.5380513,-0.0123385
2026-06-18T10:05:38.713879,+0.12,-0.23,-0.91,51.5380513,-0.0123385
2026-06-18T10:05:38.770082,+0.08,-0.14,-0.95,51.5380513,-0.0123385
2026-06-18T10:05:38.831281,+0.21,-0.27,-1.04,51.538042,-0.012392
2026-06-18T10:05:38.920547,+0.03,-0.23,-0.97,51.538042,-0.012392
2026-06-18T10:05:38.984118,+0.13,-0.23,-0.86,51.538042,-0.012392
2026-06-18T10:05:39.040718,+0.05,-0.15,-0.96,51.538042,-0.012392
2026-06-18T10:05:39.104619,+0.19,-0.30,-1.03,51.538042,-0.012392
2026-06-18T10:05:39.164490,+0.02,-0.23,-1.32,51.538042,-0.012392
2026-06-18T10:05:39.253325,+0.03,-0.11,-1.02,51.538042,-0.012392
2026-06-18T10:05:39.313371,+0.03,-0.10,-1.02,51.538042,-0.012392
2026-06-18T10:05:39.376661,-0.00,-0.08,-1.04,51.538042,-0.012392
2026-06-18T10:05:39.436367,+0.36,-0.28,-0.48,51.538042,-0.012392
2026-06-18T10:05:39.492702,+0.19,-0.32,-0.92,51.538042,-0.012392
2026-06-18T10:05:39.582269,+0.18,-0.27,-0.80,51.538042,-0.012392
2026-06-18T10:05:39.639415,+0.03,-0.10,-0.79,51.538042,-0.012392
2026-06-18T10:05:39.700899,+0.11,-0.27,-1.32,51.538042,-0.012392
2026-06-18T10:05:39.762187,+0.02,-0.16,-1.25,51.538042,-0.012392
2026-06-18T10:05:39.820098,+0.06,-0.13,-0.87,51.5380292,-0.0124433
2026-06-18T10:05:39.914280,+0.25,-0.33,-0.81,51.5380292,-0.0124433
2026-06-18T10:05:39.973712,+0.01,-0.13,-1.11,51.5380292,-0.0124433
2026-06-18T10:05:40.035454,+0.10,-0.25,-0.98,51.5380292,-0.0124433
2026-06-18T10:05:40.093513,+0.14,-0.15,-0.96,51.5380292,-0.0124433
2026-06-18T10:05:40.154118,+0.15,-0.24,-0.93,51.5380292,-0.0124433
2026-06-18T10:05:40.245278,+0.08,-0.23,-0.97,51.5380292,-0.0124433
2026-06-18T10:05:40.302078,+0.11,-0.22,-0.91,51.5380292,-0.0124433
2026-06-18T10:05:40.362737,+0.08,-0.08,-0.95,51.5380292,-0.0124433
2026-06-18T10:05:40.423530,+0.06,-0.20,-1.03,51.5380292,-0.0124433
2026-06-18T10:05:40.484468,+0.15,-0.22,-0.94,51.5380292,-0.0124433
2026-06-18T10:05:40.573478,+0.13,-0.22,-1.12,51.5380292,-0.0124433
2026-06-18T10:05:40.633347,+0.09,-0.11,-0.98,51.5380292,-0.0124433
2026-06-18T10:05:40.690701,+0.11,-0.25,-0.98,51.5380292,-0.0124433
2026-06-18T10:05:40.753705,+0.04,-0.10,-0.95,51.5380292,-0.0124433
2026-06-18T10:05:40.872254,+0.16,-0.19,-1.01,51.5380092,-0.0124894
2026-06-18T10:05:40.900310,+0.09,-0.20,-0.99,51.5380092,-0.0124894
2026-06-18T10:05:40.961711,+0.18,-0.21,-0.67,51.5380092,-0.0124894
2026-06-18T10:05:41.023606,+0.12,-0.15,-0.87,51.5380092,-0.0124894
2026-06-18T10:05:41.082083,+0.06,-0.21,-1.11,51.5380092,-0.0124894
2026-06-18T10:05:41.175619,-0.02,-0.09,-1.04,51.5380092,-0.0124894
2026-06-18T10:05:41.233085,+0.04,-0.15,-0.93,51.5380092,-0.0124894
2026-06-18T10:05:41.291907,+0.07,-0.21,-1.08,51.5380092,-0.0124894
2026-06-18T10:05:41.357383,+0.11,-0.31,-0.93,51.5380092,-0.0124894
2026-06-18T10:05:41.412155,+0.12,-0.15,-0.97,51.5380092,-0.0124894
2026-06-18T10:05:41.503981,-0.05,-0.07,-0.95,51.5380092,-0.0124894
2026-06-18T10:05:41.564259,+0.06,-0.16,-0.91,51.5380092,-0.0124894
2026-06-18T10:05:41.621101,+0.07,-0.11,-1.11,51.5380092,-0.0124894
2026-06-18T10:05:41.684634,+0.07,-0.16,-1.09,51.5380092,-0.0124894
2026-06-18T10:05:41.744493,+0.09,-0.19,-1.04,51.5380092,-0.0124894
2026-06-18T10:05:41.832067,+0.05,-0.15,-0.96,51.537994,-0.0125284
2026-06-18T10:05:41.891767,+0.08,-0.21,-0.98,51.537994,-0.0125284
2026-06-18T10:05:41.954923,+0.08,-0.15,-0.98,51.537994,-0.0125284
2026-06-18T10:05:42.014246,+0.02,-0.18,-1.08,51.537994,-0.0125284
2026-06-18T10:05:42.070770,+0.00,-0.11,-1.09,51.537994,-0.0125284
2026-06-18T10:05:42.163275,+0.08,-0.21,-1.02,51.537994,-0.0125284
2026-06-18T10:05:42.223500,+0.12,-0.20,-0.87,51.537994,-0.0125284
2026-06-18T10:05:42.281544,+0.09,-0.20,-0.92,51.537994,-0.0125284
2026-06-18T10:05:42.343586,-0.04,-0.07,-0.95,51.537994,-0.0125284
2026-06-18T10:05:42.403831,-0.04,-0.06,-0.95,51.537994,-0.0125284
2026-06-18T10:05:42.490319,+0.04,+0.05,-0.54,51.537994,-0.0125284
2026-06-18T10:05:42.551056,+0.01,-0.11,-1.10,51.537994,-0.0125284
2026-06-18T10:05:42.613890,+0.08,-0.15,-1.13,51.537994,-0.0125284
2026-06-18T10:05:42.671909,+0.03,+0.03,-0.94,51.537994,-0.0125284
2026-06-18T10:05:42.762091,-0.06,-0.07,-0.86,51.537994,-0.0125284
2026-06-18T10:05:42.819480,+0.02,-0.14,-1.00,51.5379738,-0.0125587
2026-06-18T10:05:42.880272,+0.04,-0.20,-1.12,51.5379738,-0.0125587
2026-06-18T10:05:42.944353,+0.03,-0.04,-0.96,51.5379738,-0.0125587
2026-06-18T10:05:43.003240,+0.09,-0.08,-0.88,51.5379738,-0.0125587
2026-06-18T10:05:43.091177,-0.02,-0.08,-1.05,51.5379738,-0.0125587
2026-06-18T10:05:43.152440,+0.00,-0.13,-1.01,51.5379738,-0.0125587
2026-06-18T10:05:43.212625,+0.05,-0.06,-0.95,51.5379738,-0.0125587
2026-06-18T10:05:43.273464,+0.01,-0.07,-1.04,51.5379738,-0.0125587
2026-06-18T10:05:43.331273,+0.02,-0.15,-1.08,51.5379738,-0.0125587
2026-06-18T10:05:43.424308,+0.04,-0.03,-0.88,51.5379738,-0.0125587
2026-06-18T10:05:43.480804,+0.01,-0.09,-1.02,51.5379738,-0.0125587
2026-06-18T10:05:43.545987,+0.01,-0.12,-1.06,51.5379738,-0.0125587
2026-06-18T10:05:43.605756,-0.00,-0.11,-1.01,51.5379738,-0.0125587
2026-06-18T10:05:43.662784,-0.00,-0.07,-1.00,51.5379738,-0.0125587
2026-06-18T10:05:43.754318,-0.03,-0.10,-1.00,51.5379738,-0.0125587
2026-06-18T10:05:43.809951,+0.05,-0.08,-1.04,51.5379738,-0.0125587
2026-06-18T10:05:43.873615,+0.07,-0.06,-0.99,51.537952,-0.0125765
2026-06-18T10:05:43.932972,-0.05,-0.03,-1.12,51.537952,-0.0125765
2026-06-18T10:05:43.993074,+0.09,-0.13,-1.01,51.537952,-0.0125765
2026-06-18T10:05:44.083253,+0.09,-0.03,-1.04,51.537952,-0.0125765
2026-06-18T10:05:44.140350,+0.04,-0.09,-0.99,51.537952,-0.0125765
2026-06-18T10:05:44.200085,-0.01,-0.09,-1.02,51.537952,-0.0125765
2026-06-18T10:05:44.262296,+0.09,-0.09,-0.98,51.537952,-0.0125765
2026-06-18T10:05:44.355656,+0.11,-0.18,-0.97,51.537952,-0.0125765
2026-06-18T10:05:44.411726,-0.03,-0.18,-0.86,51.537952,-0.0125765
2026-06-18T10:05:44.473275,+0.10,-0.07,-0.91,51.537952,-0.0125765
2026-06-18T10:05:44.564309,+0.01,-0.21,-0.89,51.537952,-0.0125765
2026-06-18T10:05:44.591573,+0.05,-0.25,-0.93,51.537952,-0.0125765
2026-06-18T10:05:44.684303,+0.06,-0.03,-1.01,51.537952,-0.0125765
2026-06-18T10:05:44.743561,+0.16,-0.21,-0.93,51.537952,-0.0125765
2026-06-18T10:05:44.799928,+0.02,-0.28,-0.96,51.5379385,-0.0125862
2026-06-18T10:05:44.891695,+0.22,-0.15,-1.01,51.5379385,-0.0125862
2026-06-18T10:05:44.951723,+0.16,-0.27,-0.97,51.5379385,-0.0125862
2026-06-18T10:05:45.013172,+0.20,-0.34,-0.90,51.5379385,-0.0125862
2026-06-18T10:05:45.071300,+0.16,-0.27,-0.95,51.5379385,-0.0125862
2026-06-18T10:05:45.130985,+0.03,-0.26,-0.99,51.5379385,-0.0125862
2026-06-18T10:05:45.193506,+0.08,-0.33,-0.89,51.5379385,-0.0125862
2026-06-18T10:05:45.284990,+0.23,-0.30,-0.93,51.5379385,-0.0125862
2026-06-18T10:05:45.342706,-0.02,-0.17,-1.06,51.5379385,-0.0125862
2026-06-18T10:05:45.404526,+0.18,-0.24,-0.89,51.5379385,-0.0125862
2026-06-18T10:05:45.463693,+0.21,-0.23,-0.95,51.5379385,-0.0125862
2026-06-18T10:05:45.523413,+0.14,-0.16,-1.04,51.5379385,-0.0125862
2026-06-18T10:05:45.614519,+0.20,-0.32,-0.92,51.5379385,-0.0125862
2026-06-18T10:05:45.672136,+0.10,-0.22,-1.00,51.5379385,-0.0125862
2026-06-18T10:05:45.731586,+0.07,-0.10,-0.97,51.5379385,-0.0125862
2026-06-18T10:05:45.790347,+0.04,-0.09,-1.04,51.5379385,-0.0125862
2026-06-18T10:05:45.854957,+0.07,-0.25,-1.01,51.5379253,-0.0125992
2026-06-18T10:05:45.941692,+0.23,-0.25,-0.91,51.5379253,-0.0125992
2026-06-18T10:05:46.002336,+0.08,-0.26,-0.93,51.5379253,-0.0125992
2026-06-18T10:05:46.062726,+0.17,-0.29,-0.92,51.5379253,-0.0125992
2026-06-18T10:05:46.122507,+0.21,-0.34,-0.89,51.5379253,-0.0125992
2026-06-18T10:05:46.185215,+0.13,-0.16,-0.98,51.5379253,-0.0125992
2026-06-18T10:05:46.275377,+0.14,-0.22,-0.88,51.5379253,-0.0125992
2026-06-18T10:05:46.334111,+0.20,-0.27,-0.94,51.5379253,-0.0125992
2026-06-18T10:05:46.395128,+0.14,-0.34,-0.89,51.5379253,-0.0125992
2026-06-18T10:05:46.450886,+0.16,-0.22,-0.99,51.5379253,-0.0125992
2026-06-18T10:05:46.514721,+0.11,-0.33,-0.78,51.5379253,-0.0125992
2026-06-18T10:05:46.606318,+0.14,-0.21,-0.94,51.5379253,-0.0125992
2026-06-18T10:05:46.663080,+0.04,-0.14,-1.00,51.5379253,-0.0125992
2026-06-18T10:05:46.721330,+0.10,-0.17,-1.14,51.5379253,-0.0125992
2026-06-18T10:05:46.786165,+0.17,-0.09,-1.03,51.5379253,-0.0125992
2026-06-18T10:05:46.873979,+0.11,-0.14,-0.90,51.5379059,-0.0126118
2026-06-18T10:05:46.932728,+0.12,+0.01,-1.10,51.5379059,-0.0126118
2026-06-18T10:05:46.993563,+0.20,-0.31,-0.84,51.5379059,-0.0126118
2026-06-18T10:05:47.054713,+0.27,-0.38,-0.87,51.5379059,-0.0126118
2026-06-18T10:05:47.110715,+0.07,-0.16,-0.99,51.5379059,-0.0126118
2026-06-18T10:05:47.204824,-0.02,+0.04,-1.06,51.5379059,-0.0126118
2026-06-18T10:05:47.262233,+0.29,-0.33,-0.85,51.5379059,-0.0126118
2026-06-18T10:05:47.323402,+0.19,-0.29,-0.86,51.5379059,-0.0126118
2026-06-18T10:05:47.382822,+0.16,-0.15,-1.04,51.5379059,-0.0126118
2026-06-18T10:05:47.444538,+0.12,-0.15,-1.06,51.5379059,-0.0126118
2026-06-18T10:05:47.536335,+0.14,-0.21,-0.95,51.5379059,-0.0126118
2026-06-18T10:05:47.590910,+0.12,-0.15,-0.94,51.5379059,-0.0126118
2026-06-18T10:05:47.653629,+0.04,-0.27,-0.83,51.5379059,-0.0126118
2026-06-18T10:05:47.714313,+0.03,-0.24,-1.01,51.5379059,-0.0126118
2026-06-18T10:05:47.775653,-0.01,-0.24,-0.96,51.5379059,-0.0126118
2026-06-18T10:05:47.861568,+0.06,-0.25,-0.95,51.5378841,-0.0126238
2026-06-18T10:05:47.924955,+0.11,-0.28,-1.07,51.5378841,-0.0126238
2026-06-18T10:05:47.982522,+0.09,-0.27,-0.89,51.5378841,-0.0126238
2026-06-18T10:05:48.043608,+0.12,-0.25,-0.84,51.5378841,-0.0126238
2026-06-18T10:05:48.101379,+0.07,-0.16,-1.04,51.5378841,-0.0126238
2026-06-18T10:05:48.194431,+0.07,-0.09,-1.20,51.5378841,-0.0126238
2026-06-18T10:05:48.252425,+0.09,-0.06,-1.19,51.5378841,-0.0126238
2026-06-18T10:05:48.311503,+0.10,-0.19,-1.03,51.5378841,-0.0126238
2026-06-18T10:05:48.370339,+0.15,-0.27,-0.91,51.5378841,-0.0126238
2026-06-18T10:05:48.432244,+0.08,-0.15,-1.10,51.5378841,-0.0126238
2026-06-18T10:05:48.522114,+0.21,-0.28,-0.96,51.5378841,-0.0126238
2026-06-18T10:05:48.594277,+0.17,-0.12,-0.86,51.5378841,-0.0126238
2026-06-18T10:05:48.642710,+0.12,-0.12,-0.91,51.5378841,-0.0126238
2026-06-18T10:05:48.699191,+0.10,-0.16,-1.02,51.5378841,-0.0126238
2026-06-18T10:05:48.790015,+0.02,-0.18,-1.07,51.5378618,-0.0126256
2026-06-18T10:05:48.850495,+0.12,-0.17,-0.90,51.5378618,-0.0126256
2026-06-18T10:05:48.909210,+0.09,-0.20,-0.90,51.5378618,-0.0126256
2026-06-18T10:05:48.971043,+0.09,-0.19,-0.91,51.5378618,-0.0126256
2026-06-18T10:05:49.036913,+0.10,-0.26,-0.97,51.5378618,-0.0126256
2026-06-18T10:05:49.119505,+0.09,-0.23,-0.97,51.5378618,-0.0126256
2026-06-18T10:05:49.178441,+0.14,-0.24,-0.89,51.5378618,-0.0126256
2026-06-18T10:05:49.240971,+0.12,-0.27,-0.96,51.5378618,-0.0126256
2026-06-18T10:05:49.328714,+0.03,-0.21,-1.23,51.5378618,-0.0126256
2026-06-18T10:05:49.358635,+0.05,-0.13,-1.03,51.5378618,-0.0126256
2026-06-18T10:05:49.450522,+0.06,-0.14,-1.09,51.5378618,-0.0126256
2026-06-18T10:05:49.510546,+0.20,-0.31,-0.91,51.5378618,-0.0126256
2026-06-18T10:05:49.570503,+0.18,-0.16,-0.91,51.5378618,-0.0126256
2026-06-18T10:05:49.634374,+0.12,-0.21,-1.01,51.5378618,-0.0126256
2026-06-18T10:05:49.691062,+0.10,-0.25,-1.12,51.5378618,-0.0126256
2026-06-18T10:05:49.780146,-0.02,-0.09,-1.04,51.5378618,-0.0126256
2026-06-18T10:05:49.840263,+0.10,-0.29,-0.94,51.5378288,-0.0126379
2026-06-18T10:05:49.901976,+0.08,-0.19,-0.99,51.5378288,-0.0126379
2026-06-18T10:05:49.963057,+0.08,-0.06,-1.01,51.5378288,-0.0126379
2026-06-18T10:05:50.053977,+0.16,-0.14,-0.99,51.5378288,-0.0126379
2026-06-18T10:05:50.112442,+0.06,-0.19,-1.11,51.5378288,-0.0126379
2026-06-18T10:05:50.174597,+0.09,-0.19,-0.87,51.5378288,-0.0126379
2026-06-18T10:05:50.263390,+0.03,-0.12,-1.15,51.5378288,-0.0126379
2026-06-18T10:05:50.290262,+0.04,-0.15,-0.93,51.5378288,-0.0126379
2026-06-18T10:05:50.353586,+0.20,-0.31,-0.89,51.5378288,-0.0126379
2026-06-18T10:05:50.440810,+0.14,-0.26,-0.80,51.5378288,-0.0126379
2026-06-18T10:05:50.501506,+0.01,-0.06,-1.12,51.5378288,-0.0126379
2026-06-18T10:05:50.562919,+0.13,-0.14,-0.88,51.5378288,-0.0126379
2026-06-18T10:05:50.624513,+0.06,-0.25,-0.92,51.5378288,-0.0126379
2026-06-18T10:05:50.684149,+0.06,-0.09,-1.12,51.5378288,-0.0126379
2026-06-18T10:05:50.776966,-0.01,-0.24,-0.99,51.5378288,-0.0126379
2026-06-18T10:05:50.860758,+0.06,-0.18,-1.11,51.5378079,-0.0126405
2026-06-18T10:05:50.889813,+0.12,-0.24,-0.92,51.5378079,-0.0126405
2026-06-18T10:05:50.956009,+0.07,-0.11,-1.03,51.5378079,-0.0126405
2026-06-18T10:05:51.073219,+0.03,+0.03,-0.96,51.5378079,-0.0126405
2026-06-18T10:05:51.101493,+0.19,-0.28,-0.83,51.5378079,-0.0126405
2026-06-18T10:05:51.223633,+0.07,-0.20,-1.10,51.5378079,-0.0126405
2026-06-18T10:05:51.224884,+0.05,-0.22,-1.01,51.5378079,-0.0126405
2026-06-18T10:05:51.314416,-0.01,-0.11,-1.10,51.5378079,-0.0126405
2026-06-18T10:05:51.369692,+0.07,-0.22,-1.13,51.5378079,-0.0126405
2026-06-18T10:05:51.435744,+0.22,-0.25,-0.76,51.5378079,-0.0126405
2026-06-18T10:05:51.524611,-0.11,+0.02,-1.38,51.5378079,-0.0126405
2026-06-18T10:05:51.550190,+0.11,-0.19,-1.19,51.5378079,-0.0126405
2026-06-18T10:05:51.733912,+0.07,-0.23,-0.91,51.5378079,-0.0126405
2026-06-18T10:05:51.734806,+0.24,-0.10,-0.66,51.5378079,-0.0126405
2026-06-18T10:05:51.789610,+0.06,-0.14,-1.01,51.5378079,-0.0126405
2026-06-18T10:05:51.820199,+0.07,-0.08,-1.11,51.5377882,-0.0126438
2026-06-18T10:05:51.883561,+0.22,-0.34,-0.80,51.5377882,-0.0126438
2026-06-18T10:05:52.005112,-0.11,-0.02,-1.11,51.5377882,-0.0126438
2026-06-18T10:05:52.032768,-0.01,+0.04,-1.11,51.5377882,-0.0126438
2026-06-18T10:05:52.093744,+0.08,-0.28,-0.95,51.5377882,-0.0126438
2026-06-18T10:05:52.152598,-0.05,-0.09,-0.85,51.5377882,-0.0126438
2026-06-18T10:05:52.212847,+0.15,-0.34,-0.80,51.5377882,-0.0126438
2026-06-18T10:05:52.300975,+0.06,-0.19,-1.07,51.5377882,-0.0126438
2026-06-18T10:05:52.361207,+0.04,-0.22,-1.02,51.5377882,-0.0126438
2026-06-18T10:05:52.510093,+0.10,-0.11,-1.13,51.5377882,-0.0126438
2026-06-18T10:05:52.511376,-0.04,-0.13,-0.97,51.5377882,-0.0126438
2026-06-18T10:05:52.538709,+0.26,-0.26,-0.80,51.5377882,-0.0126438
2026-06-18T10:05:52.632532,+0.10,-0.14,-1.03,51.5377882,-0.0126438
2026-06-18T10:05:52.690544,+0.13,-0.20,-0.97,51.5377882,-0.0126438
2026-06-18T10:05:52.752087,+0.14,-0.23,-0.93,51.5377882,-0.0126438
2026-06-18T10:05:52.811815,+0.09,-0.20,-1.12,51.5377673,-0.0126492
2026-06-18T10:05:52.901483,+0.02,-0.16,-1.06,51.5377673,-0.0126492
2026-06-18T10:05:52.960871,+0.05,-0.10,-1.01,51.5377673,-0.0126492
2026-06-18T10:05:53.021749,+0.14,-0.17,-0.91,51.5377673,-0.0126492
2026-06-18T10:05:53.112384,-0.02,-0.05,-1.39,51.5377673,-0.0126492
2026-06-18T10:05:53.141443,+0.04,-0.20,-1.11,51.5377673,-0.0126492
2026-06-18T10:05:53.234840,+0.15,-0.24,-0.79,51.5377673,-0.0126492
2026-06-18T10:05:53.382619,+0.10,-0.22,-1.12,51.5377673,-0.0126492
2026-06-18T10:05:53.383687,-0.04,-0.05,-0.90,51.5377673,-0.0126492
2026-06-18T10:05:53.410271,-0.02,+0.01,-1.10,51.5377673,-0.0126492
2026-06-18T10:05:53.470171,+0.09,-0.22,-0.98,51.5377673,-0.0126492
2026-06-18T10:05:53.559308,+0.10,-0.11,-0.99,51.5377673,-0.0126492
2026-06-18T10:05:53.681356,+0.06,-0.08,-1.10,51.5377673,-0.0126492
2026-06-18T10:05:53.682064,+0.15,-0.21,-0.94,51.5377673,-0.0126492
2026-06-18T10:05:53.741499,+0.15,-0.15,-0.84,51.5377673,-0.0126492
2026-06-18T10:05:53.800493,+0.14,-0.31,-0.96,51.5377673,-0.0126492
2026-06-18T10:05:53.890973,+0.07,-0.29,-1.17,51.5377418,-0.0126476
2026-06-18T10:05:53.952659,+0.23,-0.23,-0.75,51.5377418,-0.0126476
2026-06-18T10:05:54.012990,+0.17,-0.19,-0.75,51.5377418,-0.0126476
2026-06-18T10:05:54.073543,+0.04,-0.20,-1.06,51.5377418,-0.0126476
2026-06-18T10:05:54.131739,+0.05,-0.18,-1.07,51.5377418,-0.0126476
2026-06-18T10:05:54.224567,+0.15,-0.37,-0.95,51.5377418,-0.0126476
2026-06-18T10:05:54.282765,+0.15,-0.25,-1.32,51.5377418,-0.0126476
2026-06-18T10:05:54.342919,+0.03,-0.06,-1.04,51.5377418,-0.0126476
2026-06-18T10:05:54.401823,-0.02,-0.05,-1.03,51.5377418,-0.0126476
2026-06-18T10:05:54.463232,+0.06,-0.13,-1.09,51.5377418,-0.0126476
2026-06-18T10:05:54.549327,+0.00,-0.10,-0.96,51.5377418,-0.0126476
2026-06-18T10:05:54.638445,+0.18,-0.26,-1.19,51.5377418,-0.0126476
2026-06-18T10:05:54.669178,-0.03,-0.09,-1.02,51.5377418,-0.0126476
2026-06-18T10:05:54.732037,+0.07,-0.19,-0.90,51.5377418,-0.0126476
2026-06-18T10:05:54.789286,+0.07,-0.14,-0.88,51.5377418,-0.0126476
2026-06-18T10:05:54.884542,-0.06,+0.16,-1.11,51.5377157,-0.0126449
2026-06-18T10:05:54.942884,+0.12,-0.20,-0.99,51.5377157,-0.0126449
2026-06-18T10:05:55.003680,+0.18,-0.28,-1.11,51.5377157,-0.0126449
2026-06-18T10:05:55.060646,+0.16,-0.34,-0.86,51.5377157,-0.0126449
2026-06-18T10:05:55.153545,+0.09,-0.16,-0.79,51.5377157,-0.0126449
2026-06-18T10:05:55.211943,+0.10,-0.22,-1.04,51.5377157,-0.0126449
2026-06-18T10:05:55.272772,+0.13,-0.14,-0.69,51.5377157,-0.0126449
2026-06-18T10:05:55.329242,+0.01,+0.02,-0.92,51.5377157,-0.0126449
2026-06-18T10:05:55.393353,+0.11,-0.15,-0.96,51.5377157,-0.0126449
2026-06-18T10:05:55.482248,+0.15,-0.17,-1.13,51.5377157,-0.0126449
2026-06-18T10:05:55.541400,+0.16,-0.24,-0.85,51.5377157,-0.0126449
2026-06-18T10:05:55.634116,+0.18,-0.34,-0.70,51.5377157,-0.0126449
2026-06-18T10:05:55.664739,+0.07,-0.20,-1.11,51.5377157,-0.0126449
2026-06-18T10:05:55.721272,-0.03,-0.14,-1.22,51.5377157,-0.0126449
2026-06-18T10:05:55.815098,+0.14,-0.12,-1.11,51.5376823,-0.012662
2026-06-18T10:05:55.870727,+0.18,-0.21,-0.79,51.5376823,-0.012662
2026-06-18T10:05:55.931215,-0.07,-0.12,-1.23,51.5376823,-0.012662
2026-06-18T10:05:55.990543,+0.14,-0.17,-1.00,51.5376823,-0.012662
2026-06-18T10:05:56.052430,+0.10,-0.22,-0.72,51.5376823,-0.012662
2026-06-18T10:05:56.142452,+0.02,-0.19,-1.15,51.5376823,-0.012662
2026-06-18T10:05:56.201923,+0.17,-0.26,-1.09,51.5376823,-0.012662
2026-06-18T10:05:56.263209,+0.11,-0.09,-0.78,51.5376823,-0.012662
2026-06-18T10:05:56.323684,+0.11,-0.23,-0.75,51.5376823,-0.012662
2026-06-18T10:05:56.379900,-0.09,+0.05,-1.18,51.5376823,-0.012662
2026-06-18T10:05:56.474527,+0.20,-0.29,-1.15,51.5376823,-0.012662
2026-06-18T10:05:56.532434,+0.04,-0.17,-0.98,51.5376823,-0.012662
2026-06-18T10:05:56.589720,+0.13,-0.15,-1.13,51.5376823,-0.012662
2026-06-18T10:05:56.654846,+0.08,-0.24,-0.98,51.5376823,-0.012662
2026-06-18T10:05:56.710079,-0.00,-0.17,-1.14,51.5376823,-0.012662
2026-06-18T10:05:56.800137,+0.16,-0.23,-1.37,51.5376823,-0.012662
2026-06-18T10:05:56.862423,+0.05,-0.10,-0.99,51.5376481,-0.012674
2026-06-18T10:05:56.923421,+0.12,-0.21,-1.18,51.5376481,-0.012674
2026-06-18T10:05:56.981793,+0.06,-0.07,-0.76,51.5376481,-0.012674
2026-06-18T10:05:57.077618,+0.12,-0.25,-0.77,51.5376481,-0.012674
2026-06-18T10:05:57.135551,+0.17,-0.31,-0.95,51.5376481,-0.012674
2026-06-18T10:05:57.194654,+0.07,-0.09,-1.14,51.5376481,-0.012674
2026-06-18T10:05:57.255165,+0.06,-0.19,-1.02,51.5376481,-0.012674
2026-06-18T10:05:57.315196,+0.11,-0.14,-1.00,51.5376481,-0.012674
2026-06-18T10:05:57.402940,+0.20,-0.29,-0.95,51.5376481,-0.012674
2026-06-18T10:05:57.461068,+0.06,-0.13,-1.03,51.5376481,-0.012674
2026-06-18T10:05:57.523220,+0.06,-0.18,-1.08,51.5376481,-0.012674
2026-06-18T10:05:57.583477,+0.09,-0.22,-1.07,51.5376481,-0.012674
2026-06-18T10:05:57.644102,+0.09,-0.16,-0.97,51.5376481,-0.012674
2026-06-18T10:05:57.731785,+0.04,-0.17,-1.07,51.5376481,-0.012674
2026-06-18T10:05:57.790067,-0.01,+0.04,-1.14,51.5376481,-0.012674
2026-06-18T10:05:57.853019,+0.08,-0.21,-1.16,51.537611,-0.0126771
2026-06-18T10:05:57.912512,+0.11,-0.26,-1.06,51.537611,-0.0126771
2026-06-18T10:05:57.975793,-0.01,-0.11,-1.16,51.537611,-0.0126771
2026-06-18T10:05:58.062330,+0.13,-0.26,-1.10,51.537611,-0.0126771
2026-06-18T10:05:58.122736,+0.15,-0.24,-0.93,51.537611,-0.0126771
2026-06-18T10:05:58.179752,+0.06,-0.12,-1.16,51.537611,-0.0126771
2026-06-18T10:05:58.270475,+0.11,-0.21,-0.84,51.537611,-0.0126771
2026-06-18T10:05:58.298795,+0.11,-0.17,-1.05,51.537611,-0.0126771
2026-06-18T10:05:58.391353,+0.10,-0.18,-1.06,51.537611,-0.0126771
2026-06-18T10:05:58.452146,+0.14,-0.24,-0.92,51.537611,-0.0126771
2026-06-18T10:05:58.513928,+0.19,-0.21,-0.92,51.537611,-0.0126771
2026-06-18T10:05:58.574121,+0.12,-0.11,-0.86,51.537611,-0.0126771
2026-06-18T10:05:58.634080,-0.02,-0.04,-1.25,51.537611,-0.0126771
2026-06-18T10:05:58.723290,+0.18,-0.20,-0.73,51.537611,-0.0126771
2026-06-18T10:05:58.809232,+0.22,-0.25,-0.63,51.5375696,-0.012668
2026-06-18T10:05:58.838405,+0.10,-0.23,-0.97,51.5375696,-0.012668
2026-06-18T10:05:58.900064,+0.14,-0.23,-1.12,51.5375696,-0.012668
2026-06-18T10:05:58.991502,+0.10,-0.24,-0.84,51.5375696,-0.012668
2026-06-18T10:05:59.050686,+0.23,-0.37,-0.80,51.5375696,-0.012668
2026-06-18T10:05:59.118801,+0.10,-0.18,-0.95,51.5375696,-0.012668
2026-06-18T10:05:59.173659,-0.00,-0.10,-0.91,51.5375696,-0.012668
2026-06-18T10:05:59.265451,+0.07,-0.18,-0.65,51.5375696,-0.012668
2026-06-18T10:05:59.322290,+0.16,-0.31,-1.04,51.5375696,-0.012668
2026-06-18T10:05:59.387112,+0.08,-0.10,-1.03,51.5375696,-0.012668
2026-06-18T10:05:59.441144,+0.12,-0.28,-1.07,51.5375696,-0.012668
2026-06-18T10:05:59.506447,+0.13,-0.25,-1.04,51.5375696,-0.012668
2026-06-18T10:05:59.595063,+0.07,-0.28,-1.16,51.5375696,-0.012668
2026-06-18T10:05:59.653129,+0.20,-0.24,-0.73,51.5375696,-0.012668
2026-06-18T10:05:59.713833,+0.18,-0.22,-1.08,51.5375696,-0.012668
2026-06-18T10:05:59.769786,-0.03,-0.12,-1.01,51.5375696,-0.012668
2026-06-18T10:05:59.831855,+0.05,-0.12,-1.13,51.5375333,-0.0126711
2026-06-18T10:05:59.923143,+0.06,-0.25,-0.90,51.5375333,-0.0126711
2026-06-18T10:05:59.980225,-0.04,-0.06,-1.09,51.5375333,-0.0126711
2026-06-18T10:06:00.040752,+0.07,-0.16,-1.12,51.5375333,-0.0126711
2026-06-18T10:06:00.101305,+0.41,-0.42,-0.59,51.5375333,-0.0126711
2026-06-18T10:06:00.160622,+0.20,-0.24,-1.25,51.5375333,-0.0126711
2026-06-18T10:06:00.254781,+0.06,-0.11,-1.13,51.5375333,-0.0126711
2026-06-18T10:06:00.309803,+0.14,-0.16,-0.80,51.5375333,-0.0126711
2026-06-18T10:06:00.369841,+0.27,-0.36,-0.46,51.5375333,-0.0126711
2026-06-18T10:06:00.431284,-0.01,-0.07,-0.34,51.5375333,-0.0126711
2026-06-18T10:06:00.490628,+0.06,-0.12,-1.14,51.5375333,-0.0126711
2026-06-18T10:06:00.583979,+0.16,-0.36,-1.00,51.5375333,-0.0126711
2026-06-18T10:06:00.643680,+0.33,-0.33,-0.82,51.5375333,-0.0126711
2026-06-18T10:06:00.703470,+0.02,-0.02,-0.84,51.5375333,-0.0126711
2026-06-18T10:06:00.761013,+0.03,-0.19,-1.61,51.5375333,-0.0126711
2026-06-18T10:06:00.819169,+0.07,-0.20,-1.11,51.5374953,-0.0126508
2026-06-18T10:06:00.944040,-0.09,-0.02,-1.38,51.5374953,-0.0126508
2026-06-18T10:06:00.971710,+0.13,-0.06,-0.68,51.5374953,-0.0126508
2026-06-18T10:06:01.035117,+0.27,-0.34,-1.16,51.5374953,-0.0126508
2026-06-18T10:06:01.094261,-0.01,-0.14,-1.00,51.5374953,-0.0126508
2026-06-18T10:06:01.181175,+0.04,-0.13,-0.81,51.5374953,-0.0126508
2026-06-18T10:06:01.243211,+0.13,-0.30,-0.91,51.5374953,-0.0126508
2026-06-18T10:06:01.305185,+0.07,-0.06,-1.15,51.5374953,-0.0126508
2026-06-18T10:06:01.362401,+0.11,-0.20,-1.20,51.5374953,-0.0126508
2026-06-18T10:06:01.424789,+0.06,-0.14,-1.18,51.5374953,-0.0126508
2026-06-18T10:06:01.513884,+0.01,-0.04,-1.15,51.5374953,-0.0126508
2026-06-18T10:06:01.571859,+0.05,-0.17,-0.95,51.5374953,-0.0126508
2026-06-18T10:06:01.630552,-0.03,-0.02,-1.16,51.5374953,-0.0126508
2026-06-18T10:06:01.693361,-0.01,-0.07,-0.96,51.5374953,-0.0126508
2026-06-18T10:06:01.755601,+0.13,-0.31,-0.97,51.5374953,-0.0126508
2026-06-18T10:06:01.841504,+0.06,-0.13,-1.07,51.5374548,-0.0126472
2026-06-18T10:06:01.903692,-0.01,-0.22,-1.16,51.5374548,-0.0126472
2026-06-18T10:06:01.963336,+0.12,-0.20,-1.10,51.5374548,-0.0126472
2026-06-18T10:06:02.022647,+0.21,-0.26,-1.06,51.5374548,-0.0126472
2026-06-18T10:06:02.083161,+0.09,-0.17,-1.11,51.5374548,-0.0126472
2026-06-18T10:06:02.170368,-0.04,-0.00,-1.03,51.5374548,-0.0126472
2026-06-18T10:06:02.230638,-0.00,-0.11,-1.18,51.5374548,-0.0126472
2026-06-18T10:06:02.293810,+0.09,-0.24,-0.97,51.5374548,-0.0126472
2026-06-18T10:06:02.351539,+0.28,-0.22,-0.89,51.5374548,-0.0126472
2026-06-18T10:06:02.411139,+0.15,-0.27,-0.88,51.5374548,-0.0126472
2026-06-18T10:06:02.503150,+0.05,-0.05,-1.08,51.5374548,-0.0126472
2026-06-18T10:06:02.560414,+0.14,-0.18,-1.14,51.5374548,-0.0126472
2026-06-18T10:06:02.621795,+0.08,-0.08,-1.08,51.5374548,-0.0126472
2026-06-18T10:06:02.684641,+0.12,-0.17,-0.84,51.5374548,-0.0126472
2026-06-18T10:06:02.744275,+0.27,-0.29,-0.58,51.5374548,-0.0126472
2026-06-18T10:06:02.830011,+0.16,-0.20,-0.76,51.5374067,-0.0126588
2026-06-18T10:06:02.893182,+0.00,-0.16,-1.07,51.5374067,-0.0126588
2026-06-18T10:06:02.959076,+0.08,-0.19,-0.86,51.5374067,-0.0126588
2026-06-18T10:06:03.011447,+0.08,-0.12,-0.80,51.5374067,-0.0126588
2026-06-18T10:06:03.075407,+0.05,-0.12,-1.00,51.5374067,-0.0126588
2026-06-18T10:06:03.163662,+0.03,-0.17,-1.16,51.5374067,-0.0126588
2026-06-18T10:06:03.224597,+0.00,-0.21,-0.76,51.5374067,-0.0126588
2026-06-18T10:06:03.285660,-0.01,-0.13,-1.03,51.5374067,-0.0126588
2026-06-18T10:06:03.341340,+0.22,-0.29,-0.85,51.5374067,-0.0126588
2026-06-18T10:06:03.432531,+0.07,-0.13,-1.13,51.5374067,-0.0126588
2026-06-18T10:06:03.490995,+0.07,-0.17,-1.16,51.5374067,-0.0126588
2026-06-18T10:06:03.553980,+0.14,-0.29,-0.82,51.5374067,-0.0126588
2026-06-18T10:06:03.611552,+0.03,-0.05,-1.18,51.5374067,-0.0126588
2026-06-18T10:06:03.672353,+0.08,-0.18,-0.81,51.5374067,-0.0126588
2026-06-18T10:06:03.761036,+0.23,-0.27,-0.94,51.5374067,-0.0126588
2026-06-18T10:06:03.820684,-0.06,-0.04,-1.15,51.5373586,-0.0126785
2026-06-18T10:06:03.884119,+0.20,-0.28,-0.98,51.5373586,-0.0126785
2026-06-18T10:06:03.944673,+0.05,-0.09,-0.85,51.5373586,-0.0126785
2026-06-18T10:06:04.004088,-0.01,-0.12,-1.29,51.5373586,-0.0126785
2026-06-18T10:06:04.093701,+0.10,-0.18,-1.11,51.5373586,-0.0126785
2026-06-18T10:06:04.153446,-0.06,+0.00,-1.03,51.5373586,-0.0126785
2026-06-18T10:06:04.213768,+0.05,-0.14,-1.05,51.5373586,-0.0126785
2026-06-18T10:06:04.274271,+0.14,-0.23,-1.11,51.5373586,-0.0126785
2026-06-18T10:06:04.333894,-0.01,-0.10,-1.21,51.5373586,-0.0126785
2026-06-18T10:06:04.423258,+0.19,-0.36,-0.73,51.5373586,-0.0126785
2026-06-18T10:06:04.482438,+0.18,-0.34,-0.91,51.5373586,-0.0126785
2026-06-18T10:06:04.545009,+0.05,-0.09,-1.21,51.5373586,-0.0126785
2026-06-18T10:06:04.603596,+0.13,-0.26,-0.96,51.5373586,-0.0126785
2026-06-18T10:06:04.661540,+0.14,+0.01,-0.95,51.5373586,-0.0126785
2026-06-18T10:06:04.755125,+0.11,-0.15,-0.88,51.5373586,-0.0126785
2026-06-18T10:06:04.809822,+0.14,-0.24,-0.94,51.5373132,-0.0126922
2026-06-18T10:06:04.871936,+0.04,-0.17,-1.00,51.5373132,-0.0126922
2026-06-18T10:06:04.933221,-0.07,-0.12,-1.21,51.5373132,-0.0126922
2026-06-18T10:06:04.993896,+0.13,-0.35,-0.98,51.5373132,-0.0126922
2026-06-18T10:06:05.083723,+0.08,-0.17,-0.93,51.5373132,-0.0126922
2026-06-18T10:06:05.142094,-0.03,-0.09,-1.12,51.5373132,-0.0126922
2026-06-18T10:06:05.199784,+0.09,-0.10,-1.08,51.5373132,-0.0126922
2026-06-18T10:06:05.264420,+0.11,-0.11,-0.84,51.5373132,-0.0126922
2026-06-18T10:06:05.356684,+0.18,-0.25,-0.95,51.5373132,-0.0126922
2026-06-18T10:06:05.411372,+0.14,-0.19,-1.01,51.5373132,-0.0126922
2026-06-18T10:06:05.471287,+0.10,-0.20,-0.97,51.5373132,-0.0126922
2026-06-18T10:06:05.532690,+0.08,-0.21,-1.01,51.5373132,-0.0126922
2026-06-18T10:06:05.595824,+0.10,-0.16,-0.95,51.5373132,-0.0126922
2026-06-18T10:06:05.683269,+0.07,-0.07,-0.96,51.5373132,-0.0126922
2026-06-18T10:06:05.740944,+0.09,-0.15,-1.02,51.5373132,-0.0126922
2026-06-18T10:06:05.799804,+0.07,-0.26,-1.01,51.5373132,-0.0126922
2026-06-18T10:06:05.860917,+0.13,-0.19,-0.95,51.5372713,-0.0126979
2026-06-18T10:06:05.923293,+0.07,-0.26,-0.87,51.5372713,-0.0126979
2026-06-18T10:06:06.012904,+0.03,-0.16,-1.01,51.5372713,-0.0126979
2026-06-18T10:06:06.071995,+0.17,-0.35,-1.10,51.5372713,-0.0126979
2026-06-18T10:06:06.136466,+0.04,-0.11,-1.10,51.5372713,-0.0126979
2026-06-18T10:06:06.195295,-0.06,-0.00,-1.13,51.5372713,-0.0126979
2026-06-18T10:06:06.255454,+0.08,-0.25,-0.81,51.5372713,-0.0126979
2026-06-18T10:06:06.339157,+0.19,-0.22,-0.82,51.5372713,-0.0126979
2026-06-18T10:06:06.401918,+0.11,-0.17,-1.34,51.5372713,-0.0126979
2026-06-18T10:06:06.460122,+0.20,-0.27,-0.73,51.5372713,-0.0126979
2026-06-18T10:06:06.523139,+0.13,-0.21,-1.04,51.5372713,-0.0126979
2026-06-18T10:06:06.582746,+0.02,-0.13,-0.94,51.5372713,-0.0126979
2026-06-18T10:06:06.676186,+0.19,-0.29,-1.00,51.5372713,-0.0126979
2026-06-18T10:06:06.734132,+0.06,-0.05,-1.08,51.5372713,-0.0126979
2026-06-18T10:06:06.792053,+0.03,-0.22,-1.03,51.5372713,-0.0126979
2026-06-18T10:06:06.855270,+0.18,-0.19,-0.90,51.5372282,-0.0127053
2026-06-18T10:06:06.910339,+0.01,-0.12,-1.10,51.5372282,-0.0127053
2026-06-18T10:06:07.001495,+0.29,-0.29,-0.26,51.5372282,-0.0127053
2026-06-18T10:06:07.062651,+0.05,-0.20,-1.23,51.5372282,-0.0127053
2026-06-18T10:06:07.124722,-0.06,-0.07,-1.29,51.5372282,-0.0127053
2026-06-18T10:06:07.183776,+0.10,-0.20,-1.12,51.5372282,-0.0127053
2026-06-18T10:06:07.274268,+0.23,-0.25,-0.76,51.5372282,-0.0127053
2026-06-18T10:06:07.334503,+0.11,-0.24,-0.87,51.5372282,-0.0127053
2026-06-18T10:06:07.392816,+0.19,-0.31,-0.94,51.5372282,-0.0127053
2026-06-18T10:06:07.456696,+0.10,-0.32,-1.09,51.5372282,-0.0127053
2026-06-18T10:06:07.516107,+0.07,-0.16,-0.99,51.5372282,-0.0127053
2026-06-18T10:06:07.605611,+0.09,-0.22,-0.84,51.5372282,-0.0127053
2026-06-18T10:06:07.661814,-0.01,-0.05,-0.87,51.5372282,-0.0127053
2026-06-18T10:06:07.722532,+0.02,-0.08,-1.13,51.5372282,-0.0127053
2026-06-18T10:06:07.782153,+0.19,-0.19,-0.87,51.5372282,-0.0127053
2026-06-18T10:06:07.840728,+0.02,-0.11,-1.03,51.5371839,-0.01271
2026-06-18T10:06:07.933055,+0.07,-0.18,-1.03,51.5371839,-0.01271
2026-06-18T10:06:07.998710,+0.21,-0.29,-0.95,51.5371839,-0.01271
2026-06-18T10:06:08.053751,+0.15,-0.19,-0.98,51.5371839,-0.01271
2026-06-18T10:06:08.114399,+0.12,-0.12,-1.10,51.5371839,-0.01271
2026-06-18T10:06:08.171696,+0.16,-0.22,-0.99,51.5371839,-0.01271
2026-06-18T10:06:08.263177,-0.06,-0.09,-1.12,51.5371839,-0.01271
2026-06-18T10:06:08.321194,+0.27,-0.40,-0.56,51.5371839,-0.01271
2026-06-18T10:06:08.383098,-0.13,+0.07,-1.20,51.5371839,-0.01271
2026-06-18T10:06:08.443636,+0.14,-0.18,-1.06,51.5371839,-0.01271
2026-06-18T10:06:08.503418,+0.19,-0.25,-0.90,51.5371839,-0.01271
2026-06-18T10:06:08.594038,-0.05,-0.03,-1.12,51.5371839,-0.01271
2026-06-18T10:06:08.656648,+0.08,-0.19,-0.97,51.5371839,-0.01271
2026-06-18T10:06:08.710737,+0.14,-0.31,-0.89,51.5371839,-0.01271
2026-06-18T10:06:08.770974,-0.11,+0.06,-1.14,51.5371839,-0.01271
2026-06-18T10:06:08.829878,+0.19,-0.37,-0.97,51.5371412,-0.0127119
2026-06-18T10:06:08.923714,+0.13,-0.19,-0.87,51.5371412,-0.0127119
2026-06-18T10:06:08.982897,+0.07,-0.17,-0.92,51.5371412,-0.0127119
2026-06-18T10:06:09.073844,+0.09,-0.25,-1.12,51.5371412,-0.0127119
2026-06-18T10:06:09.102972,+0.02,-0.18,-1.07,51.5371412,-0.0127119
2026-06-18T10:06:09.167083,+0.13,-0.21,-0.92,51.5371412,-0.0127119
2026-06-18T10:06:09.251078,+0.14,-0.23,-0.79,51.5371412,-0.0127119
2026-06-18T10:06:09.310584,-0.06,+0.02,-1.21,51.5371412,-0.0127119
2026-06-18T10:06:09.373884,+0.15,-0.16,-1.12,51.5371412,-0.0127119
2026-06-18T10:06:09.464387,+0.07,-0.18,-0.75,51.5371412,-0.0127119
2026-06-18T10:06:09.522613,+0.12,-0.19,-0.83,51.5371412,-0.0127119
2026-06-18T10:06:09.584308,+0.17,-0.23,-0.84,51.5371412,-0.0127119
2026-06-18T10:06:09.642004,+0.00,-0.09,-1.14,51.5371412,-0.0127119
2026-06-18T10:06:09.704983,+0.12,-0.23,-0.84,51.5371412,-0.0127119
2026-06-18T10:06:09.792023,+0.12,-0.16,-0.89,51.5371412,-0.0127119
2026-06-18T10:06:09.854876,-0.00,-0.08,-1.06,51.5370976,-0.0127202
2026-06-18T10:06:09.915001,+0.14,-0.31,-1.08,51.5370976,-0.0127202
2026-06-18T10:06:09.974052,+0.15,-0.21,-0.83,51.5370976,-0.0127202
2026-06-18T10:06:10.033106,+0.15,-0.19,-0.63,51.5370976,-0.0127202
2026-06-18T10:06:10.123141,+0.08,-0.18,-1.05,51.5370976,-0.0127202
2026-06-18T10:06:10.180508,+0.09,-0.19,-1.08,51.5370976,-0.0127202
2026-06-18T10:06:10.242930,+0.04,-0.08,-1.02,51.5370976,-0.0127202
2026-06-18T10:06:10.302074,+0.12,-0.25,-0.62,51.5370976,-0.0127202
2026-06-18T10:06:10.362171,+0.13,-0.20,-0.94,51.5370976,-0.0127202
2026-06-18T10:06:10.453291,+0.09,-0.17,-1.01,51.5370976,-0.0127202
2026-06-18T10:06:10.511669,-0.05,-0.06,-1.21,51.5370976,-0.0127202
2026-06-18T10:06:10.573326,+0.13,-0.25,-0.88,51.5370976,-0.0127202
2026-06-18T10:06:10.634862,-0.10,-0.01,-1.22,51.5370976,-0.0127202
2026-06-18T10:06:10.690722,+0.14,-0.17,-0.88,51.5370976,-0.0127202
2026-06-18T10:06:10.781890,+0.12,-0.26,-1.14,51.5370976,-0.0127202
2026-06-18T10:06:10.841206,+0.27,-0.37,-0.67,51.537054,-0.0127312
2026-06-18T10:06:10.903539,+0.02,-0.17,-1.37,51.537054,-0.0127312
2026-06-18T10:06:10.963207,-0.05,-0.12,-1.11,51.537054,-0.0127312
2026-06-18T10:06:11.024711,+0.12,-0.19,-0.91,51.537054,-0.0127312
2026-06-18T10:06:11.116506,-0.19,+0.09,-0.93,51.537054,-0.0127312
2026-06-18T10:06:11.172249,-0.02,-0.06,-1.22,51.537054,-0.0127312
2026-06-18T10:06:11.234483,+0.11,-0.20,-1.22,51.537054,-0.0127312
2026-06-18T10:06:11.296755,+0.07,-0.17,-0.89,51.537054,-0.0127312
2026-06-18T10:06:11.380899,+0.13,-0.21,-0.75,51.537054,-0.0127312
2026-06-18T10:06:11.444250,+0.08,-0.10,-1.15,51.537054,-0.0127312
2026-06-18T10:06:11.503499,+0.10,-0.14,-0.83,51.537054,-0.0127312
2026-06-18T10:06:11.560433,+0.07,-0.24,-1.08,51.537054,-0.0127312
2026-06-18T10:06:11.622846,+0.15,-0.29,-1.03,51.537054,-0.0127312
2026-06-18T10:06:11.716171,+0.05,-0.19,-1.08,51.537054,-0.0127312
2026-06-18T10:06:11.772033,+0.12,-0.19,-0.83,51.537054,-0.0127312
2026-06-18T10:06:11.831191,+0.03,-0.16,-0.96,51.5370147,-0.0127388
2026-06-18T10:06:11.893124,-0.01,-0.08,-1.11,51.5370147,-0.0127388
2026-06-18T10:06:11.953809,+0.09,-0.16,-0.95,51.5370147,-0.0127388
2026-06-18T10:06:12.043745,+0.03,-0.11,-1.18,51.5370147,-0.0127388
2026-06-18T10:06:12.100588,+0.15,-0.31,-0.91,51.5370147,-0.0127388
2026-06-18T10:06:12.163225,+0.10,-0.17,-0.92,51.5370147,-0.0127388
2026-06-18T10:06:12.228354,+0.05,-0.16,-1.00,51.5370147,-0.0127388
2026-06-18T10:06:12.282676,-0.04,-0.09,-0.98,51.5370147,-0.0127388
2026-06-18T10:06:12.372759,+0.13,-0.14,-0.94,51.5370147,-0.0127388
2026-06-18T10:06:12.435047,+0.08,-0.19,-0.92,51.5370147,-0.0127388
2026-06-18T10:06:12.491714,+0.16,-0.21,-0.68,51.5370147,-0.0127388
2026-06-18T10:06:12.554962,+0.15,-0.16,-0.82,51.5370147,-0.0127388
2026-06-18T10:06:12.613881,+0.04,-0.10,-1.15,51.5370147,-0.0127388
2026-06-18T10:06:12.702018,+0.09,-0.26,-1.10,51.5370147,-0.0127388
2026-06-18T10:06:12.761558,+0.09,-0.22,-0.86,51.5370147,-0.0127388
2026-06-18T10:06:12.821654,+0.15,-0.22,-0.68,51.5369744,-0.0127486
2026-06-18T10:06:12.881807,+0.11,-0.16,-1.05,51.5369744,-0.0127486
2026-06-18T10:06:12.942085,+0.08,-0.14,-0.85,51.5369744,-0.0127486
2026-06-18T10:06:13.035107,+0.01,-0.19,-0.85,51.5369744,-0.0127486
2026-06-18T10:06:13.093211,+0.19,-0.16,-0.87,51.5369744,-0.0127486
2026-06-18T10:06:13.155324,-0.09,+0.05,-1.19,51.5369744,-0.0127486
2026-06-18T10:06:13.213556,+0.16,-0.22,-0.90,51.5369744,-0.0127486
2026-06-18T10:06:13.278552,+0.20,-0.24,-0.80,51.5369744,-0.0127486
2026-06-18T10:06:13.361556,+0.12,-0.02,-1.01,51.5369744,-0.0127486
2026-06-18T10:06:13.423695,-0.01,-0.17,-1.21,51.5369744,-0.0127486
2026-06-18T10:06:13.485919,-0.08,-0.13,-0.68,51.5369744,-0.0127486
2026-06-18T10:06:13.543233,+0.05,-0.23,-0.82,51.5369744,-0.0127486
2026-06-18T10:06:13.633466,-0.03,-0.18,-1.27,51.5369744,-0.0127486
2026-06-18T10:06:13.692998,+0.08,-0.12,-1.00,51.5369744,-0.0127486
2026-06-18T10:06:13.756156,-0.11,-0.11,-0.81,51.5369744,-0.0127486
2026-06-18T10:06:13.814175,-0.08,-0.22,-1.25,51.5369334,-0.0127587
2026-06-18T10:06:13.871694,+0.03,-0.06,-0.92,51.5369334,-0.0127587
2026-06-18T10:06:13.963427,+0.08,-0.16,-0.86,51.5369334,-0.0127587
2026-06-18T10:06:14.022997,+0.13,-0.27,-1.05,51.5369334,-0.0127587
2026-06-18T10:06:14.085756,-0.01,-0.16,-1.08,51.5369334,-0.0127587
2026-06-18T10:06:14.142715,+0.04,-0.12,-1.12,51.5369334,-0.0127587
2026-06-18T10:06:14.206367,-0.01,-0.17,-1.01,51.5369334,-0.0127587
2026-06-18T10:06:14.292968,+0.12,-0.29,-0.81,51.5369334,-0.0127587
2026-06-18T10:06:14.355810,-0.01,+0.17,-0.69,51.5369334,-0.0127587
2026-06-18T10:06:14.410416,+0.06,-0.18,-0.96,51.5369334,-0.0127587
2026-06-18T10:06:14.474711,+0.26,-0.19,-0.89,51.5369334,-0.0127587
2026-06-18T10:06:14.533081,+0.03,-0.07,-1.04,51.5369334,-0.0127587
2026-06-18T10:06:14.624528,-0.03,-0.12,-0.69,51.5369334,-0.0127587
2026-06-18T10:06:14.683357,+0.16,-0.19,-1.07,51.5369334,-0.0127587
2026-06-18T10:06:14.775222,+0.05,-0.20,-1.30,51.5369334,-0.0127587
2026-06-18T10:06:14.799945,+0.05,-0.32,-1.14,51.5369334,-0.0127587
2026-06-18T10:06:14.863480,-0.06,-0.16,-0.75,51.5368961,-0.0127672
2026-06-18T10:06:14.956012,+0.07,-0.18,-0.92,51.5368961,-0.0127672
2026-06-18T10:06:15.014905,+0.03,-0.14,-0.86,51.5368961,-0.0127672
2026-06-18T10:06:15.075352,+0.12,-0.13,-0.91,51.5368961,-0.0127672
2026-06-18T10:06:15.133508,-0.08,-0.12,-0.78,51.5368961,-0.0127672
2026-06-18T10:06:15.194770,+0.08,-0.02,-1.01,51.5368961,-0.0127672
2026-06-18T10:06:15.282705,+0.01,-0.07,-0.85,51.5368961,-0.0127672
2026-06-18T10:06:15.342690,+0.13,-0.12,-1.00,51.5368961,-0.0127672
2026-06-18T10:06:15.403080,-0.04,-0.08,-1.22,51.5368961,-0.0127672
2026-06-18T10:06:15.463487,+0.08,-0.10,-0.91,51.5368961,-0.0127672
2026-06-18T10:06:15.554239,-0.04,-0.07,-1.07,51.5368961,-0.0127672
2026-06-18T10:06:15.613387,+0.14,-0.14,-0.87,51.5368961,-0.0127672
2026-06-18T10:06:15.674614,+0.13,-0.15,-0.97,51.5368961,-0.0127672
2026-06-18T10:06:15.731697,-0.02,-0.11,-1.08,51.5368961,-0.0127672
2026-06-18T10:06:15.793673,-0.01,-0.11,-0.97,51.5368961,-0.0127672
2026-06-18T10:06:15.880761,+0.06,-0.04,-0.58,51.5368628,-0.0127718
2026-06-18T10:06:15.940395,+0.03,-0.12,-0.93,51.5368628,-0.0127718
2026-06-18T10:06:16.004578,-0.00,-0.07,-1.09,51.5368628,-0.0127718
2026-06-18T10:06:16.063195,+0.10,+0.01,-0.94,51.5368628,-0.0127718
2026-06-18T10:06:16.123009,+0.00,-0.12,-0.86,51.5368628,-0.0127718
2026-06-18T10:06:16.215024,-0.02,+0.02,-1.09,51.5368628,-0.0127718
2026-06-18T10:06:16.273486,+0.02,-0.08,-1.07,51.5368628,-0.0127718
2026-06-18T10:06:16.336453,+0.01,-0.16,-1.08,51.5368628,-0.0127718
2026-06-18T10:06:16.396530,+0.06,-0.14,-1.05,51.5368628,-0.0127718
2026-06-18T10:06:16.451661,+0.02,-0.03,-1.16,51.5368628,-0.0127718
2026-06-18T10:06:16.542062,-0.03,-0.08,-0.75,51.5368628,-0.0127718
2026-06-18T10:06:16.600929,-0.01,-0.08,-0.96,51.5368628,-0.0127718
2026-06-18T10:06:16.662784,+0.05,-0.12,-0.98,51.5368628,-0.0127718
2026-06-18T10:06:16.720558,+0.05,-0.09,-0.98,51.5368628,-0.0127718
2026-06-18T10:06:16.780952,+0.05,-0.13,-0.88,51.5368628,-0.0127718
2026-06-18T10:06:16.872553,+0.06,-0.15,-1.02,51.5368329,-0.0127755
2026-06-18T10:06:16.933544,-0.05,-0.12,-1.11,51.5368329,-0.0127755
