Timestamp,Acc_X,Acc_Y,Acc_Z,Latitude,Longitude
2026-06-18T10:16:11.244913,+0.21,-0.10,-0.97,51.538591,-0.010107
2026-06-18T10:16:11.304746,+0.21,-0.11,-0.98,51.538591,-0.010107
2026-06-18T10:16:11.394832,+0.21,-0.11,-0.97,51.538591,-0.010107
2026-06-18T10:16:11.456592,+0.22,-0.11,-0.98,51.538591,-0.010107
2026-06-18T10:16:11.514848,+0.23,-0.10,-0.97,51.538591,-0.010107
2026-06-18T10:16:11.574706,+0.22,-0.10,-0.97,51.538591,-0.010107
2026-06-18T10:16:11.637743,+0.21,-0.09,-0.98,51.538591,-0.010107
2026-06-18T10:16:11.729551,+0.21,-0.11,-0.98,51.538591,-0.010107
2026-06-18T10:16:11.786822,+0.21,-0.11,-0.98,51.538591,-0.010107
2026-06-18T10:16:11.845112,+0.21,-0.11,-0.98,51.538591,-0.010107
2026-06-18T10:16:11.905220,+0.21,-0.09,-0.98,51.538591,-0.010107
2026-06-18T10:16:11.965206,+0.21,-0.09,-0.98,51.538591,-0.010107
2026-06-18T10:16:12.055245,+0.20,-0.11,-0.97,51.538591,-0.010107
2026-06-18T10:16:12.115556,+0.21,-0.09,-0.99,51.538591,-0.010107
2026-06-18T10:16:12.175613,+0.19,-0.08,-0.98,51.538591,-0.010107
2026-06-18T10:16:12.235549,+0.21,-0.09,-0.98,51.538591,-0.010107
2026-06-18T10:16:12.295983,+0.25,-0.08,-0.97,51.538591,-0.010107
2026-06-18T10:16:12.386244,+0.28,-0.12,-0.97,51.538591,-0.010107
2026-06-18T10:16:12.445087,+0.22,-0.11,-0.97,51.538591,-0.010107
2026-06-18T10:16:12.506111,+0.24,-0.04,-1.01,51.538591,-0.010107
2026-06-18T10:16:12.565361,+0.22,-0.09,-0.96,51.538591,-0.010107
2026-06-18T10:16:12.626120,+0.24,-0.09,-0.98,51.538591,-0.010107
2026-06-18T10:16:12.715217,+0.21,-0.09,-0.99,51.538591,-0.010107
2026-06-18T10:16:12.775010,+0.17,-0.17,-0.96,51.538591,-0.010107
2026-06-18T10:16:12.834984,+0.20,-0.15,-0.96,51.538591,-0.010107
2026-06-18T10:16:12.896181,+0.22,-0.10,-0.99,51.538591,-0.010107
2026-06-18T10:16:12.955824,+0.24,-0.10,-0.97,51.538591,-0.010107
2026-06-18T10:16:13.046411,+0.21,-0.14,-0.97,51.538591,-0.010107
2026-06-18T10:16:13.106197,+0.21,-0.13,-0.98,51.538591,-0.010107
2026-06-18T10:16:13.166607,+0.23,-0.11,-0.97,51.538591,-0.010107
2026-06-18T10:16:13.257506,+0.20,-0.12,-0.97,51.538591,-0.010107
2026-06-18T10:16:13.316522,+0.21,-0.08,-0.99,51.538591,-0.010107
2026-06-18T10:16:13.376701,+0.17,-0.07,-0.99,51.538591,-0.010107
2026-06-18T10:16:13.435074,+0.19,-0.04,-0.99,51.538591,-0.010107
2026-06-18T10:16:13.495757,+0.21,-0.04,-0.99,51.538591,-0.010107
2026-06-18T10:16:13.585028,+0.18,-0.05,-1.01,51.538591,-0.010107
2026-06-18T10:16:13.645184,+0.23,-0.08,-0.98,51.538591,-0.010107
2026-06-18T10:16:13.705547,+0.24,-0.10,-0.97,51.538591,-0.010107
2026-06-18T10:16:13.780814,+0.21,-0.08,-0.98,51.5387966,-0.0093467
2026-06-18T10:16:13.826319,+0.22,-0.04,-0.99,51.5387966,-0.0093467
2026-06-18T10:16:13.919165,+0.19,-0.08,-0.98,51.5387966,-0.0093467
2026-06-18T10:16:13.975632,+0.25,-0.04,-0.99,51.5387966,-0.0093467
2026-06-18T10:16:14.035166,+0.27,+0.01,-0.98,51.5387966,-0.0093467
2026-06-18T10:16:14.096640,+0.23,-0.04,-0.97,51.5387966,-0.0093467
2026-06-18T10:16:14.156087,+0.25,-0.12,-0.96,51.5387966,-0.0093467
2026-06-18T10:16:14.245946,+0.32,-0.16,-0.98,51.5387966,-0.0093467
2026-06-18T10:16:14.307617,+0.30,-0.23,-0.91,51.5387966,-0.0093467
2026-06-18T10:16:14.366555,+0.27,-0.19,-0.92,51.5387966,-0.0093467
2026-06-18T10:16:14.426605,+0.37,-0.19,-0.97,51.5387966,-0.0093467
2026-06-18T10:16:14.487032,+0.48,+0.04,-0.96,51.5387966,-0.0093467
2026-06-18T10:16:14.578417,+0.55,-0.07,-0.97,51.5387966,-0.0093467
2026-06-18T10:16:14.637411,+0.46,-0.12,-0.94,51.5387966,-0.0093467
2026-06-18T10:16:14.696418,+0.50,-0.18,-0.91,51.5387966,-0.0093467
2026-06-18T10:16:14.758949,+0.56,-0.15,-0.91,51.5387966,-0.0093467
2026-06-18T10:16:14.817967,+0.53,-0.08,-0.94,51.5387935,-0.0093441
2026-06-18T10:16:14.909010,+0.42,-0.18,-0.87,51.5387935,-0.0093441
2026-06-18T10:16:14.968714,+0.52,-0.24,-0.97,51.5387935,-0.0093441
2026-06-18T10:16:15.027512,+0.45,-0.19,-0.87,51.5387935,-0.0093441
2026-06-18T10:16:15.088467,+0.27,-0.14,-1.01,51.5387935,-0.0093441
2026-06-18T10:16:15.178882,-0.06,+0.18,-1.11,51.5387935,-0.0093441
2026-06-18T10:16:15.237067,-0.01,-0.25,-1.04,51.5387935,-0.0093441
2026-06-18T10:16:15.296295,+0.51,-0.08,-0.84,51.5387935,-0.0093441
2026-06-18T10:16:15.359292,+0.07,-0.38,-0.93,51.5387935,-0.0093441
2026-06-18T10:16:15.418144,+0.17,-0.15,-1.02,51.5387935,-0.0093441
2026-06-18T10:16:15.509877,+0.27,-0.00,-0.96,51.5387935,-0.0093441
2026-06-18T10:16:15.568052,+0.19,+0.05,-0.97,51.5387935,-0.0093441
2026-06-18T10:16:15.627261,-0.01,-0.26,-0.92,51.5387935,-0.0093441
2026-06-18T10:16:15.688037,+0.19,-0.28,-0.95,51.5387935,-0.0093441
2026-06-18T10:16:15.748844,+0.06,-0.17,-1.02,51.5387935,-0.0093441
2026-06-18T10:16:15.837707,+0.04,-0.22,-0.97,51.5388018,-0.0093855
2026-06-18T10:16:15.897561,+0.21,-0.25,-0.90,51.5388018,-0.0093855
2026-06-18T10:16:15.957347,+0.23,-0.10,-0.93,51.5388018,-0.0093855
2026-06-18T10:16:16.017133,+0.22,-0.15,-0.98,51.5388018,-0.0093855
2026-06-18T10:16:16.078825,+0.40,-0.47,-1.09,51.5388018,-0.0093855
2026-06-18T10:16:16.167761,+0.23,-0.27,-1.08,51.5388018,-0.0093855
2026-06-18T10:16:16.228051,+0.07,-0.12,-0.86,51.5388018,-0.0093855
2026-06-18T10:16:16.286549,+0.26,-0.09,-1.05,51.5388018,-0.0093855
2026-06-18T10:16:16.358096,+0.30,-0.34,-0.88,51.5388018,-0.0093855
2026-06-18T10:16:16.407550,+0.20,-0.22,-0.92,51.5388018,-0.0093855
2026-06-18T10:16:16.500245,+0.10,-0.21,-0.92,51.5388018,-0.0093855
2026-06-18T10:16:16.557247,+0.22,-0.25,-0.90,51.5388018,-0.0093855
2026-06-18T10:16:16.619538,+0.19,-0.25,-0.91,51.5388018,-0.0093855
2026-06-18T10:16:16.680010,+0.19,-0.10,-0.94,51.5388018,-0.0093855
2026-06-18T10:16:16.737528,+0.21,-0.18,-0.90,51.5388018,-0.0093855
2026-06-18T10:16:16.826518,+0.00,-0.13,-0.92,51.5388149,-0.009425
2026-06-18T10:16:16.889763,+0.19,-0.10,-1.19,51.5388149,-0.009425
2026-06-18T10:16:16.947560,+0.20,-0.03,-0.91,51.5388149,-0.009425
2026-06-18T10:16:17.006754,+0.07,-0.16,-0.99,51.5388149,-0.009425
2026-06-18T10:16:17.067904,+0.19,-0.26,-0.89,51.5388149,-0.009425
2026-06-18T10:16:17.159449,+0.20,-0.18,-0.97,51.5388149,-0.009425
2026-06-18T10:16:17.216792,+0.19,-0.24,-0.97,51.5388149,-0.009425
2026-06-18T10:16:17.277603,+0.12,-0.05,-1.07,51.5388149,-0.009425
2026-06-18T10:16:17.342040,+0.18,-0.27,-0.92,51.5388149,-0.009425
2026-06-18T10:16:17.426504,+0.22,-0.25,-0.88,51.5388149,-0.009425
2026-06-18T10:16:17.522540,+0.30,-0.14,-0.85,51.5388149,-0.009425
2026-06-18T10:16:17.546390,+0.12,-0.20,-0.95,51.5388149,-0.009425
2026-06-18T10:16:17.606681,+0.31,-0.22,-0.36,51.5388149,-0.009425
2026-06-18T10:16:17.670023,+0.47,-0.92,-0.51,51.5388149,-0.009425
2026-06-18T10:16:17.786261,+0.21,-0.20,-0.57,51.5388149,-0.009425
2026-06-18T10:16:17.815748,+0.26,-0.17,-1.07,51.538832,-0.0094626
2026-06-18T10:16:17.876745,-0.05,+0.05,-1.03,51.538832,-0.0094626
2026-06-18T10:16:17.936966,+0.07,-0.02,-0.97,51.538832,-0.0094626
2026-06-18T10:16:17.997251,+0.19,-0.30,-0.93,51.538832,-0.0094626
2026-06-18T10:16:18.116638,+0.60,-0.51,-0.93,51.538832,-0.0094626
2026-06-18T10:16:18.146306,-0.18,+0.21,-0.95,51.538832,-0.0094626
2026-06-18T10:16:18.207299,+0.18,-0.40,-1.05,51.538832,-0.0094626
2026-06-18T10:16:18.268787,+0.18,-0.38,-0.77,51.538832,-0.0094626
2026-06-18T10:16:18.327862,+0.10,-0.01,-1.04,51.538832,-0.0094626
2026-06-18T10:16:18.418505,+0.11,-0.24,-0.94,51.538832,-0.0094626
2026-06-18T10:16:18.479959,-0.02,-0.28,-1.02,51.538832,-0.0094626
2026-06-18T10:16:18.538546,+0.10,-0.09,-0.98,51.538832,-0.0094626
2026-06-18T10:16:18.597128,+0.29,-0.33,-0.81,51.538832,-0.0094626
2026-06-18T10:16:18.657566,+0.21,-0.13,-0.86,51.538832,-0.0094626
2026-06-18T10:16:18.748239,+0.13,+0.00,-1.05,51.538832,-0.0094626
2026-06-18T10:16:18.806106,+0.24,-0.26,-0.86,51.5388509,-0.0095016
2026-06-18T10:16:18.866701,+0.27,-0.47,-0.80,51.5388509,-0.0095016
2026-06-18T10:16:18.926257,+0.24,-0.21,-0.79,51.5388509,-0.0095016
2026-06-18T10:16:18.987307,+0.13,-0.19,-0.97,51.5388509,-0.0095016
2026-06-18T10:16:19.077716,+0.33,-0.32,-1.05,51.5388509,-0.0095016
2026-06-18T10:16:19.137014,+0.15,-0.28,-0.95,51.5388509,-0.0095016
2026-06-18T10:16:19.197196,+0.11,-0.17,-1.03,51.5388509,-0.0095016
2026-06-18T10:16:19.262323,+0.11,-0.11,-1.05,51.5388509,-0.0095016
2026-06-18T10:16:19.347244,+0.16,-0.19,-0.87,51.5388509,-0.0095016
2026-06-18T10:16:19.407106,+0.11,-0.22,-0.97,51.5388509,-0.0095016
2026-06-18T10:16:19.468376,+0.15,-0.13,-0.84,51.5388509,-0.0095016
2026-06-18T10:16:19.526907,+0.19,-0.25,-0.93,51.5388509,-0.0095016
2026-06-18T10:16:19.587537,+0.18,-0.33,-0.85,51.5388509,-0.0095016
2026-06-18T10:16:19.677032,+0.14,-0.18,-0.92,51.5388509,-0.0095016
2026-06-18T10:16:19.737696,+0.16,-0.20,-1.20,51.5388509,-0.0095016
2026-06-18T10:16:19.806852,+0.18,-0.22,-0.95,51.5388509,-0.0095016
2026-06-18T10:16:19.858218,+0.18,-0.33,-1.05,51.5388582,-0.0095399
2026-06-18T10:16:19.947536,-0.03,+0.02,-1.07,51.5388582,-0.0095399
2026-06-18T10:16:20.006854,+0.15,-0.27,-0.98,51.5388582,-0.0095399
2026-06-18T10:16:20.068549,+0.16,-0.19,-0.85,51.5388582,-0.0095399
2026-06-18T10:16:20.127436,+0.11,-0.03,-1.22,51.5388582,-0.0095399
2026-06-18T10:16:20.187207,+0.24,-0.23,-0.84,51.5388582,-0.0095399
2026-06-18T10:16:20.252829,+0.22,-0.24,-0.94,51.5388582,-0.0095399
2026-06-18T10:16:20.335664,+0.11,-0.08,-0.88,51.5388582,-0.0095399
2026-06-18T10:16:20.400124,+0.15,-0.09,-0.97,51.5388582,-0.0095399
2026-06-18T10:16:20.457987,+0.20,-0.37,-0.91,51.5388582,-0.0095399
2026-06-18T10:16:20.517324,+0.13,-0.15,-0.97,51.5388582,-0.0095399
2026-06-18T10:16:20.577705,+0.08,-0.09,-1.32,51.5388582,-0.0095399
2026-06-18T10:16:20.698089,+0.18,-0.19,-0.92,51.5388582,-0.0095399
2026-06-18T10:16:20.726799,+0.20,+0.05,-0.89,51.5388582,-0.0095399
2026-06-18T10:16:20.786197,+0.24,-0.20,-0.73,51.5388582,-0.0095399
2026-06-18T10:16:20.846956,+0.44,-0.37,-0.15,51.5388565,-0.0095798
2026-06-18T10:16:20.910023,+0.46,-0.58,+0.78,51.5388565,-0.0095798
2026-06-18T10:16:21.000579,+0.11,-0.19,-1.25,51.5388565,-0.0095798
2026-06-18T10:16:21.057691,+0.14,-0.26,-1.06,51.5388565,-0.0095798
2026-06-18T10:16:21.118740,+0.31,-0.44,-0.74,51.5388565,-0.0095798
2026-06-18T10:16:21.180030,-0.02,+0.01,-0.96,51.5388565,-0.0095798
2026-06-18T10:16:21.267203,+0.05,-0.13,-1.75,51.5388565,-0.0095798
2026-06-18T10:16:21.330231,+0.57,-0.82,-0.84,51.5388565,-0.0095798
2026-06-18T10:16:21.386417,+0.14,-0.13,-0.93,51.5388565,-0.0095798
2026-06-18T10:16:21.449285,-0.03,+0.07,-1.08,51.5388565,-0.0095798
2026-06-18T10:16:21.537963,+0.32,-0.34,-0.90,51.5388565,-0.0095798
2026-06-18T10:16:21.596822,+0.09,-0.20,-1.02,51.5388565,-0.0095798
2026-06-18T10:16:21.656960,+0.10,-0.14,-1.06,51.5388565,-0.0095798
2026-06-18T10:16:21.716241,+0.22,-0.16,-0.87,51.5388565,-0.0095798
2026-06-18T10:16:21.777660,+0.16,-0.23,-0.99,51.5388565,-0.0095798
2026-06-18T10:16:21.865674,+0.18,-0.20,-0.95,51.5388515,-0.0096145
2026-06-18T10:16:21.926456,+0.25,-0.23,-0.91,51.5388515,-0.0096145
2026-06-18T10:16:21.985850,+0.25,-0.26,-0.93,51.5388515,-0.0096145
2026-06-18T10:16:22.046144,+0.22,-0.23,-1.04,51.5388515,-0.0096145
2026-06-18T10:16:22.106636,+0.21,-0.19,-0.84,51.5388515,-0.0096145
2026-06-18T10:16:22.198314,+0.26,-0.24,-0.91,51.5388515,-0.0096145
2026-06-18T10:16:22.256377,+0.21,-0.20,-0.93,51.5388515,-0.0096145
2026-06-18T10:16:22.316829,+0.16,-0.16,-1.07,51.5388515,-0.0096145
2026-06-18T10:16:22.377480,+0.20,-0.24,-0.83,51.5388515,-0.0096145
2026-06-18T10:16:22.437833,+0.12,-0.20,-1.09,51.5388515,-0.0096145
2026-06-18T10:16:22.527696,+0.14,-0.24,-0.95,51.5388515,-0.0096145
2026-06-18T10:16:22.588047,+0.09,-0.19,-1.02,51.5388515,-0.0096145
2026-06-18T10:16:22.646773,+0.17,-0.28,-0.94,51.5388515,-0.0096145
2026-06-18T10:16:22.706742,+0.12,-0.23,-1.05,51.5388515,-0.0096145
2026-06-18T10:16:22.766980,+0.17,-0.28,-0.92,51.5388515,-0.0096145
2026-06-18T10:16:22.858476,+0.18,-0.15,-1.09,51.5388456,-0.0096455
2026-06-18T10:16:22.917959,+0.18,-0.26,-0.98,51.5388456,-0.0096455
2026-06-18T10:16:22.978018,+0.15,-0.21,-1.01,51.5388456,-0.0096455
2026-06-18T10:16:23.037026,+0.16,-0.17,-0.96,51.5388456,-0.0096455
2026-06-18T10:16:23.099671,+0.16,-0.18,-0.95,51.5388456,-0.0096455
2026-06-18T10:16:23.188441,+0.22,-0.16,-1.01,51.5388456,-0.0096455
2026-06-18T10:16:23.247976,+0.19,-0.03,-1.00,51.5388456,-0.0096455
2026-06-18T10:16:23.307271,+0.20,-0.18,-1.04,51.5388456,-0.0096455
2026-06-18T10:16:23.366748,+0.12,-0.12,-0.89,51.5388456,-0.0096455
2026-06-18T10:16:23.488746,+0.21,-0.27,-0.89,51.5388456,-0.0096455
2026-06-18T10:16:23.516685,+0.22,-0.27,-1.01,51.5388456,-0.0096455
2026-06-18T10:16:23.577787,+0.19,-0.22,-0.95,51.5388456,-0.0096455
2026-06-18T10:16:23.668421,+0.17,-0.19,-0.89,51.5388456,-0.0096455
2026-06-18T10:16:23.697623,+0.17,-0.11,-0.98,51.5388456,-0.0096455
2026-06-18T10:16:23.789312,+0.09,-0.04,-0.93,51.5388456,-0.0096455
2026-06-18T10:16:23.847562,+0.18,-0.20,-1.06,51.5388331,-0.0096826
2026-06-18T10:16:23.907373,+0.14,-0.21,-1.04,51.5388331,-0.0096826
2026-06-18T10:16:23.967076,+0.05,-0.13,-0.96,51.5388331,-0.0096826
2026-06-18T10:16:24.027914,+0.17,-0.27,-0.87,51.5388331,-0.0096826
2026-06-18T10:16:24.118337,+0.12,-0.18,-0.95,51.5388331,-0.0096826
2026-06-18T10:16:24.178424,+0.12,-0.19,-1.02,51.5388331,-0.0096826
2026-06-18T10:16:24.240549,+0.20,-0.19,-0.91,51.5388331,-0.0096826
2026-06-18T10:16:24.300144,+0.15,-0.23,-1.00,51.5388331,-0.0096826
2026-06-18T10:16:24.357889,+0.13,-0.16,-0.98,51.5388331,-0.0096826
2026-06-18T10:16:24.448506,+0.16,-0.29,-0.83,51.5388331,-0.0096826
2026-06-18T10:16:24.507643,+0.14,-0.12,-1.01,51.5388331,-0.0096826
2026-06-18T10:16:24.567488,+0.24,+0.06,-0.83,51.5388331,-0.0096826
2026-06-18T10:16:24.628127,+0.25,-0.18,-0.85,51.5388331,-0.0096826
2026-06-18T10:16:24.687160,+0.15,-0.17,-1.04,51.5388331,-0.0096826
2026-06-18T10:16:24.779618,+0.21,-0.16,-0.98,51.5388331,-0.0096826
2026-06-18T10:16:24.839147,+0.24,-0.32,-0.94,51.5388192,-0.0097245
2026-06-18T10:16:24.896017,+0.18,-0.21,-0.93,51.5388192,-0.0097245
2026-06-18T10:16:24.955464,+0.10,-0.17,-0.95,51.5388192,-0.0097245
2026-06-18T10:16:25.020016,+0.31,-0.27,-0.92,51.5388192,-0.0097245
2026-06-18T10:16:25.109072,+0.11,-0.21,-1.16,51.5388192,-0.0097245
2026-06-18T10:16:25.166671,-0.02,-0.18,-0.76,51.5388192,-0.0097245
2026-06-18T10:16:25.227564,+0.09,-0.20,-0.87,51.5388192,-0.0097245
2026-06-18T10:16:25.286639,+0.10,-0.17,-1.15,51.5388192,-0.0097245
2026-06-18T10:16:25.347183,+0.19,-0.28,-0.83,51.5388192,-0.0097245
2026-06-18T10:16:25.438609,+0.10,-0.01,-1.20,51.5388192,-0.0097245
2026-06-18T10:16:25.497517,+0.22,-0.32,-0.99,51.5388192,-0.0097245
2026-06-18T10:16:25.557446,+0.09,-0.14,-0.98,51.5388192,-0.0097245
2026-06-18T10:16:25.616886,+0.09,-0.18,-0.90,51.5388192,-0.0097245
2026-06-18T10:16:25.707440,+0.14,-0.05,-0.96,51.5388192,-0.0097245
2026-06-18T10:16:25.770101,+0.14,-0.08,-1.10,51.5388192,-0.0097245
2026-06-18T10:16:25.827531,+0.18,-0.14,-0.95,51.5388042,-0.009767
2026-06-18T10:16:25.886670,+0.20,-0.10,-0.86,51.5388042,-0.009767
2026-06-18T10:16:25.946724,+0.25,-0.24,-1.05,51.5388042,-0.009767
2026-06-18T10:16:26.038385,+0.20,-0.22,-0.88,51.5388042,-0.009767
2026-06-18T10:16:26.097211,+0.19,-0.22,-0.98,51.5388042,-0.009767
2026-06-18T10:16:26.157912,+0.16,-0.16,-0.87,51.5388042,-0.009767
2026-06-18T10:16:26.218397,+0.25,-0.21,-1.06,51.5388042,-0.009767
2026-06-18T10:16:26.276488,+0.07,-0.07,-1.01,51.5388042,-0.009767
2026-06-18T10:16:26.368908,+0.18,-0.23,-0.94,51.5388042,-0.009767
2026-06-18T10:16:26.426803,+0.14,-0.19,-0.83,51.5388042,-0.009767
2026-06-18T10:16:26.487188,+0.19,-0.29,-0.90,51.5388042,-0.009767
2026-06-18T10:16:26.547112,+0.22,-0.32,-1.02,51.5388042,-0.009767
2026-06-18T10:16:26.607341,+0.15,-0.16,-1.02,51.5388042,-0.009767
2026-06-18T10:16:26.698289,+0.10,-0.16,-0.97,51.5388042,-0.009767
2026-06-18T10:16:26.757534,+0.19,-0.24,-0.99,51.5388042,-0.009767
2026-06-18T10:16:26.816866,+0.10,-0.11,-1.07,51.5387896,-0.0098106
2026-06-18T10:16:26.878243,+0.15,-0.11,-0.92,51.5387896,-0.0098106
2026-06-18T10:16:26.937922,+0.11,-0.08,-1.08,51.5387896,-0.0098106
2026-06-18T10:16:27.026338,+0.14,-0.13,-1.08,51.5387896,-0.0098106
2026-06-18T10:16:27.087037,+0.13,-0.18,-1.00,51.5387896,-0.0098106
2026-06-18T10:16:27.147662,+0.19,-0.18,-0.89,51.5387896,-0.0098106
2026-06-18T10:16:27.207181,+0.20,-0.18,-0.93,51.5387896,-0.0098106
2026-06-18T10:16:27.269987,+0.24,-0.17,-0.90,51.5387896,-0.0098106
2026-06-18T10:16:27.358109,+0.13,-0.05,-1.10,51.5387896,-0.0098106
2026-06-18T10:16:27.417997,+0.19,-0.20,-0.86,51.5387896,-0.0098106
2026-06-18T10:16:27.478202,+0.20,-0.26,-0.83,51.5387896,-0.0098106
2026-06-18T10:16:27.566538,+0.11,-0.13,-0.83,51.5387896,-0.0098106
2026-06-18T10:16:27.657912,+0.02,-0.15,-1.06,51.5387896,-0.0098106
2026-06-18T10:16:27.686693,+0.11,-0.20,-0.95,51.5387896,-0.0098106
2026-06-18T10:16:27.748344,+0.21,-0.25,-0.90,51.5387896,-0.0098106
2026-06-18T10:16:27.838384,+0.22,-0.33,-0.89,51.5387724,-0.0098531
2026-06-18T10:16:27.958567,+0.06,-0.24,-0.96,51.5387724,-0.0098531
2026-06-18T10:16:27.959272,+0.17,-0.12,-0.95,51.5387724,-0.0098531
2026-06-18T10:16:28.047731,+0.14,-0.19,-1.15,51.5387724,-0.0098531
2026-06-18T10:16:28.091584,+0.25,-0.12,-0.91,51.5387724,-0.0098531
2026-06-18T10:16:28.136043,+0.14,-0.11,-1.14,51.5387724,-0.0098531
2026-06-18T10:16:28.228356,+0.23,-0.08,-0.91,51.5387724,-0.0098531
2026-06-18T10:16:28.286442,+0.21,-0.28,-0.93,51.5387724,-0.0098531
2026-06-18T10:16:28.348981,+0.16,-0.23,-1.09,51.5387724,-0.0098531
2026-06-18T10:16:28.408909,+0.12,-0.15,-1.12,51.5387724,-0.0098531
2026-06-18T10:16:28.467203,+0.15,-0.25,-0.92,51.5387724,-0.0098531
2026-06-18T10:16:28.559622,+0.18,-0.24,-0.79,51.5387724,-0.0098531
2026-06-18T10:16:28.620714,+0.15,-0.13,-1.14,51.5387724,-0.0098531
2026-06-18T10:16:28.678619,+0.11,-0.18,-1.00,51.5387724,-0.0098531
2026-06-18T10:16:28.736591,+0.14,-0.26,-0.99,51.5387724,-0.0098531
2026-06-18T10:16:28.796877,+0.13,-0.14,-1.00,51.5387724,-0.0098531
2026-06-18T10:16:28.888360,+0.29,-0.36,-0.65,51.538754,-0.0098957
2026-06-18T10:16:28.948373,+0.05,-0.15,-1.08,51.538754,-0.0098957
2026-06-18T10:16:29.007493,+0.14,-0.21,-0.78,51.538754,-0.0098957
2026-06-18T10:16:29.067219,+0.17,-0.22,-0.90,51.538754,-0.0098957
2026-06-18T10:16:29.127933,+0.05,+0.02,-1.03,51.538754,-0.0098957
2026-06-18T10:16:29.222037,+0.24,-0.17,-1.11,51.538754,-0.0098957
2026-06-18T10:16:29.279929,+0.18,-0.24,-0.85,51.538754,-0.0098957
2026-06-18T10:16:29.337818,+0.19,-0.31,-1.12,51.538754,-0.0098957
2026-06-18T10:16:29.398880,+0.15,-0.22,-0.88,51.538754,-0.0098957
2026-06-18T10:16:29.457423,+0.18,-0.18,-1.14,51.538754,-0.0098957
2026-06-18T10:16:29.547327,+0.18,-0.05,-0.71,51.538754,-0.0098957
2026-06-18T10:16:29.608099,+0.09,-0.15,-1.07,51.538754,-0.0098957
2026-06-18T10:16:29.669246,+0.22,-0.26,-1.01,51.538754,-0.0098957
2026-06-18T10:16:29.728168,+0.16,-0.23,-0.93,51.538754,-0.0098957
2026-06-18T10:16:29.817714,+0.03,-0.08,-0.99,51.5387369,-0.0099418
2026-06-18T10:16:29.880525,+0.15,-0.21,-0.83,51.5387369,-0.0099418
2026-06-18T10:16:29.937055,+0.18,-0.24,-0.82,51.5387369,-0.0099418
2026-06-18T10:16:30.001904,+0.18,-0.24,-0.93,51.5387369,-0.0099418
2026-06-18T10:16:30.057791,+0.07,-0.12,-1.00,51.5387369,-0.0099418
2026-06-18T10:16:30.149904,+0.06,-0.01,-1.24,51.5387369,-0.0099418
2026-06-18T10:16:30.206610,+0.18,-0.10,-0.92,51.5387369,-0.0099418
2026-06-18T10:16:30.266803,+0.18,-0.27,-0.86,51.5387369,-0.0099418
2026-06-18T10:16:30.326606,+0.15,-0.08,-0.79,51.5387369,-0.0099418
2026-06-18T10:16:30.388420,+0.19,-0.20,-0.84,51.5387369,-0.0099418
2026-06-18T10:16:30.479264,+0.24,-0.19,-0.81,51.5387369,-0.0099418
2026-06-18T10:16:30.537664,+0.20,-0.19,-1.11,51.5387369,-0.0099418
2026-06-18T10:16:30.597141,+0.19,-0.12,-0.72,51.5387369,-0.0099418
2026-06-18T10:16:30.657655,+0.18,-0.22,-1.11,51.5387369,-0.0099418
2026-06-18T10:16:30.717431,+0.13,-0.09,-1.06,51.5387369,-0.0099418
2026-06-18T10:16:30.807312,+0.16,-0.20,-0.97,51.5387167,-0.0099869
2026-06-18T10:16:30.867557,+0.13,-0.21,-0.89,51.5387167,-0.0099869
2026-06-18T10:16:30.928771,+0.15,-0.23,-0.88,51.5387167,-0.0099869
2026-06-18T10:16:30.987320,+0.06,-0.10,-1.15,51.5387167,-0.0099869
2026-06-18T10:16:31.048680,+0.11,-0.16,-1.13,51.5387167,-0.0099869
2026-06-18T10:16:31.141458,+0.19,-0.30,-0.71,51.5387167,-0.0099869
2026-06-18T10:16:31.198559,+0.08,-0.15,-0.95,51.5387167,-0.0099869
2026-06-18T10:16:31.258712,+0.13,-0.16,-1.11,51.5387167,-0.0099869
2026-06-18T10:16:31.318144,+0.14,-0.09,-0.99,51.5387167,-0.0099869
2026-06-18T10:16:31.380256,+0.17,-0.14,-0.91,51.5387167,-0.0099869
2026-06-18T10:16:31.468496,+0.28,-0.16,-0.86,51.5387167,-0.0099869
2026-06-18T10:16:31.533423,+0.16,-0.04,-0.87,51.5387167,-0.0099869
2026-06-18T10:16:31.586923,+0.23,-0.16,-1.08,51.5387167,-0.0099869
2026-06-18T10:16:31.648862,+0.22,-0.23,-0.85,51.5387167,-0.0099869
2026-06-18T10:16:31.739141,+0.10,-0.13,-0.93,51.5387167,-0.0099869
2026-06-18T10:16:31.797724,+0.05,-0.19,-0.87,51.5386966,-0.0100309
2026-06-18T10:16:31.859255,+0.18,-0.15,-1.06,51.5386966,-0.0100309
2026-06-18T10:16:31.917675,+0.04,-0.01,-1.04,51.5386966,-0.0100309
2026-06-18T10:16:31.977711,+0.17,-0.29,-0.90,51.5386966,-0.0100309
2026-06-18T10:16:32.066857,+0.11,-0.19,-0.99,51.5386966,-0.0100309
2026-06-18T10:16:32.127105,+0.11,-0.16,-0.91,51.5386966,-0.0100309
2026-06-18T10:16:32.187601,+0.05,-0.17,-1.08,51.5386966,-0.0100309
2026-06-18T10:16:32.248215,+0.12,-0.18,-1.01,51.5386966,-0.0100309
2026-06-18T10:16:32.313164,+0.15,-0.22,-0.98,51.5386966,-0.0100309
2026-06-18T10:16:32.400577,+0.10,-0.08,-0.91,51.5386966,-0.0100309
2026-06-18T10:16:32.458395,+0.22,-0.16,-0.97,51.5386966,-0.0100309
2026-06-18T10:16:32.522305,+0.18,-0.13,-0.88,51.5386966,-0.0100309
2026-06-18T10:16:32.576885,+0.25,-0.19,-0.95,51.5386966,-0.0100309
2026-06-18T10:16:32.638360,+0.18,-0.17,-1.00,51.5386966,-0.0100309
2026-06-18T10:16:32.730758,+0.18,-0.17,-0.93,51.5386966,-0.0100309
2026-06-18T10:16:32.787603,+0.16,-0.11,-1.13,51.5386966,-0.0100309
2026-06-18T10:16:32.845908,+0.25,-0.18,-0.99,51.5386774,-0.0100759
2026-06-18T10:16:32.908213,+0.06,-0.15,-1.01,51.5386774,-0.0100759
2026-06-18T10:16:32.967380,+0.14,-0.23,-1.05,51.5386774,-0.0100759
2026-06-18T10:16:33.087111,+0.01,-0.03,-1.13,51.5386774,-0.0100759
2026-06-18T10:16:33.118949,+0.09,-0.14,-1.04,51.5386774,-0.0100759
2026-06-18T10:16:33.179231,+0.17,-0.27,-0.87,51.5386774,-0.0100759
2026-06-18T10:16:33.238891,+0.18,-0.19,-1.02,51.5386774,-0.0100759
2026-06-18T10:16:33.298142,+0.08,-0.18,-0.78,51.5386774,-0.0100759
2026-06-18T10:16:33.387417,+0.10,-0.15,-1.15,51.5386774,-0.0100759
2026-06-18T10:16:33.448417,+0.18,-0.20,-0.88,51.5386774,-0.0100759
2026-06-18T10:16:33.508457,+0.18,-0.14,-1.03,51.5386774,-0.0100759
2026-06-18T10:16:33.567350,+0.15,-0.13,-0.92,51.5386774,-0.0100759
2026-06-18T10:16:33.657247,+0.25,-0.16,-0.98,51.5386774,-0.0100759
2026-06-18T10:16:33.717422,+0.19,-0.07,-0.87,51.5386774,-0.0100759
2026-06-18T10:16:33.779331,+0.23,-0.29,-0.97,51.5386774,-0.0100759
2026-06-18T10:16:33.842837,+0.20,-0.17,-0.77,51.5386562,-0.0101212
2026-06-18T10:16:33.897700,+0.16,-0.11,-0.97,51.5386562,-0.0101212
2026-06-18T10:16:33.988032,+0.13,-0.10,-0.97,51.5386562,-0.0101212
2026-06-18T10:16:34.050515,+0.21,-0.27,-0.98,51.5386562,-0.0101212
2026-06-18T10:16:34.108370,+0.10,-0.18,-1.06,51.5386562,-0.0101212
2026-06-18T10:16:34.170126,+0.12,-0.14,-0.97,51.5386562,-0.0101212
2026-06-18T10:16:34.231026,+0.01,-0.09,-1.08,51.5386562,-0.0101212
2026-06-18T10:16:34.318349,+0.18,-0.24,-1.05,51.5386562,-0.0101212
2026-06-18T10:16:34.379128,+0.17,-0.23,-0.89,51.5386562,-0.0101212
2026-06-18T10:16:34.440521,+0.17,-0.22,-0.96,51.5386562,-0.0101212
2026-06-18T10:16:34.499789,+0.17,-0.21,-0.94,51.5386562,-0.0101212
2026-06-18T10:16:34.556962,+0.16,-0.18,-0.80,51.5386562,-0.0101212
2026-06-18T10:16:34.647088,+0.08,-0.14,-0.97,51.5386562,-0.0101212
2026-06-18T10:16:34.708140,+0.14,-0.25,-1.07,51.5386562,-0.0101212
2026-06-18T10:16:34.769143,+0.21,-0.17,-0.99,51.5386562,-0.0101212
2026-06-18T10:16:34.828479,+0.12,-0.07,-1.03,51.5386348,-0.0101633
2026-06-18T10:16:34.886239,+0.23,-0.14,-1.18,51.5386348,-0.0101633
2026-06-18T10:16:34.976322,+0.21,-0.13,-0.93,51.5386348,-0.0101633
2026-06-18T10:16:35.038801,+0.13,-0.19,-1.10,51.5386348,-0.0101633
2026-06-18T10:16:35.097515,+0.07,-0.09,-1.04,51.5386348,-0.0101633
2026-06-18T10:16:35.160496,+0.13,-0.15,-0.88,51.5386348,-0.0101633
2026-06-18T10:16:35.218385,+0.09,-0.15,-0.89,51.5386348,-0.0101633
2026-06-18T10:16:35.308486,+0.20,-0.19,-1.01,51.5386348,-0.0101633
2026-06-18T10:16:35.370953,+0.15,-0.14,-0.89,51.5386348,-0.0101633
2026-06-18T10:16:35.429983,+0.21,-0.17,-0.80,51.5386348,-0.0101633
2026-06-18T10:16:35.486657,+0.11,-0.13,-0.90,51.5386348,-0.0101633
2026-06-18T10:16:35.546354,+0.20,-0.28,-0.87,51.5386348,-0.0101633
2026-06-18T10:16:35.637141,+0.13,-0.19,-0.86,51.5386348,-0.0101633
2026-06-18T10:16:35.702644,+0.13,-0.19,-0.95,51.5386348,-0.0101633
2026-06-18T10:16:35.756695,+0.23,-0.20,-1.00,51.5386348,-0.0101633
2026-06-18T10:16:35.849384,+0.14,-0.14,-1.01,51.5386156,-0.0102046
2026-06-18T10:16:35.907816,+0.20,-0.10,-1.06,51.5386156,-0.0102046
2026-06-18T10:16:35.969717,+0.26,-0.27,-0.86,51.5386156,-0.0102046
2026-06-18T10:16:36.028068,+0.15,-0.14,-0.93,51.5386156,-0.0102046
2026-06-18T10:16:36.089154,+0.14,-0.07,-1.11,51.5386156,-0.0102046
2026-06-18T10:16:36.184730,+0.22,-0.18,-1.00,51.5386156,-0.0102046
2026-06-18T10:16:36.237174,+0.20,-0.19,-0.91,51.5386156,-0.0102046
2026-06-18T10:16:36.300651,+0.13,-0.16,-1.12,51.5386156,-0.0102046
2026-06-18T10:16:36.357904,+0.41,-0.50,-0.49,51.5386156,-0.0102046
2026-06-18T10:16:36.417832,+0.19,-0.19,-0.97,51.5386156,-0.0102046
2026-06-18T10:16:36.509748,+0.22,-0.17,-0.91,51.5386156,-0.0102046
2026-06-18T10:16:36.566761,+0.09,-0.13,-0.93,51.5386156,-0.0102046
2026-06-18T10:16:36.631097,+0.25,-0.29,-1.09,51.5386156,-0.0102046
2026-06-18T10:16:36.720362,+0.19,-0.20,-0.93,51.5386156,-0.0102046
2026-06-18T10:16:36.751315,+0.20,-0.19,-0.90,51.5386156,-0.0102046
2026-06-18T10:16:36.838792,+0.20,-0.20,-1.05,51.5385969,-0.010244
2026-06-18T10:16:36.899019,+0.11,-0.19,-0.91,51.5385969,-0.010244
2026-06-18T10:16:36.958473,+0.09,-0.01,-0.98,51.5385969,-0.010244
2026-06-18T10:16:37.018811,+0.12,-0.16,-1.05,51.5385969,-0.010244
2026-06-18T10:16:37.081810,+0.12,-0.19,-0.96,51.5385969,-0.010244
2026-06-18T10:16:37.171553,+0.18,-0.18,-1.03,51.5385969,-0.010244
2026-06-18T10:16:37.227734,+0.21,-0.17,-0.80,51.5385969,-0.010244
2026-06-18T10:16:37.287065,+0.30,-0.29,-0.79,51.5385969,-0.010244
2026-06-18T10:16:37.349742,+0.10,-0.09,-0.99,51.5385969,-0.010244
2026-06-18T10:16:37.407497,+0.12,-0.15,-0.92,51.5385969,-0.010244
2026-06-18T10:16:37.498943,+0.23,-0.22,-1.01,51.5385969,-0.010244
2026-06-18T10:16:37.558148,+0.16,-0.13,-0.86,51.5385969,-0.010244
2026-06-18T10:16:37.618015,+0.18,-0.27,-0.88,51.5385969,-0.010244
2026-06-18T10:16:37.678858,+0.13,-0.16,-1.02,51.5385969,-0.010244
2026-06-18T10:16:37.800760,+0.11,-0.28,-0.94,51.5385969,-0.010244
2026-06-18T10:16:37.826098,+0.09,-0.21,-1.12,51.5385795,-0.0102843
2026-06-18T10:16:37.887384,+0.09,-0.22,-1.11,51.5385795,-0.0102843
2026-06-18T10:16:37.949192,+0.08,-0.21,-0.97,51.5385795,-0.0102843
2026-06-18T10:16:38.008279,+0.10,-0.18,-0.99,51.5385795,-0.0102843
2026-06-18T10:16:38.128522,+0.13,-0.22,-1.44,51.5385795,-0.0102843
2026-06-18T10:16:38.158212,-0.17,+0.19,-2.02,51.5385795,-0.0102843
2026-06-18T10:16:38.217075,-0.07,-0.05,-1.65,51.5385795,-0.0102843
2026-06-18T10:16:38.278515,+0.52,-1.16,-0.31,51.5385795,-0.0102843
2026-06-18T10:16:38.337599,-0.00,-0.15,-0.47,51.5385795,-0.0102843
2026-06-18T10:16:38.429805,+0.08,+0.02,-1.30,51.5385795,-0.0102843
2026-06-18T10:16:38.490747,+0.16,-0.34,-1.50,51.5385795,-0.0102843
2026-06-18T10:16:38.550551,+0.01,-0.24,-0.93,51.5385795,-0.0102843
2026-06-18T10:16:38.607481,+0.21,-0.01,-0.82,51.5385795,-0.0102843
2026-06-18T10:16:38.666700,+0.14,-0.28,-0.63,51.5385795,-0.0102843
2026-06-18T10:16:38.763818,+0.23,-0.06,-0.72,51.5385795,-0.0102843
2026-06-18T10:16:38.816625,-0.09,+0.30,-1.18,51.5385621,-0.0103266
2026-06-18T10:16:38.877688,+0.05,+0.01,-0.82,51.5385621,-0.0103266
2026-06-18T10:16:38.937340,+0.22,-0.26,-0.98,51.5385621,-0.0103266
2026-06-18T10:16:39.002013,+0.18,-0.26,-1.09,51.5385621,-0.0103266
2026-06-18T10:16:39.087117,+0.09,-0.07,-1.02,51.5385621,-0.0103266
2026-06-18T10:16:39.149587,+0.07,-0.13,-1.31,51.5385621,-0.0103266
2026-06-18T10:16:39.207289,+0.27,-0.21,-0.95,51.5385621,-0.0103266
2026-06-18T10:16:39.267994,+0.25,-0.36,-0.71,51.5385621,-0.0103266
2026-06-18T10:16:39.360357,+0.09,-0.19,-1.04,51.5385621,-0.0103266
2026-06-18T10:16:39.419691,+0.13,-0.14,-1.05,51.5385621,-0.0103266
2026-06-18T10:16:39.481466,+0.15,-0.15,-0.98,51.5385621,-0.0103266
2026-06-18T10:16:39.538214,+0.24,-0.18,-1.01,51.5385621,-0.0103266
2026-06-18T10:16:39.602282,+0.16,-0.13,-0.96,51.5385621,-0.0103266
2026-06-18T10:16:39.661668,+0.19,-0.11,-1.09,51.5385621,-0.0103266
2026-06-18T10:16:39.751194,+0.13,-0.06,-1.09,51.5385621,-0.0103266
2026-06-18T10:16:39.806220,+0.02,-0.09,-1.84,51.538543,-0.010365
2026-06-18T10:16:39.872008,+0.24,-0.22,-0.88,51.538543,-0.010365
2026-06-18T10:16:39.927652,+0.19,-0.11,-0.85,51.538543,-0.010365
2026-06-18T10:16:40.026550,+0.12,-0.14,-1.11,51.538543,-0.010365
2026-06-18T10:16:40.077609,+0.21,-0.21,-0.71,51.538543,-0.010365
2026-06-18T10:16:40.140582,+0.06,+0.07,-0.82,51.538543,-0.010365
2026-06-18T10:16:40.200834,+0.10,-0.18,-0.92,51.538543,-0.010365
2026-06-18T10:16:40.257779,+0.31,-0.54,-0.49,51.538543,-0.010365
2026-06-18T10:16:40.349085,+0.14,-0.29,-1.06,51.538543,-0.010365
2026-06-18T10:16:40.407489,+0.04,-0.14,-1.04,51.538543,-0.010365
2026-06-18T10:16:40.500312,+0.09,-0.23,-1.04,51.538543,-0.010365
2026-06-18T10:16:40.531320,+0.07,-0.10,-1.37,51.538543,-0.010365
2026-06-18T10:16:40.590862,+0.24,-0.24,-0.95,51.538543,-0.010365
2026-06-18T10:16:40.682733,+0.05,-0.08,-0.96,51.538543,-0.010365
2026-06-18T10:16:40.737663,+0.05,-0.01,-1.18,51.538543,-0.010365
2026-06-18T10:16:40.798229,+0.14,-0.12,-0.95,51.538543,-0.010365
2026-06-18T10:16:40.860635,+0.11,-0.14,-1.31,51.538528,-0.0104065
2026-06-18T10:16:40.917457,+0.17,-0.14,-0.80,51.538528,-0.0104065
2026-06-18T10:16:41.013101,+0.18,-0.19,-1.01,51.538528,-0.0104065
2026-06-18T10:16:41.067177,+0.29,-0.07,-0.80,51.538528,-0.0104065
2026-06-18T10:16:41.129373,+0.19,-0.14,-0.60,51.538528,-0.0104065
2026-06-18T10:16:41.190599,+0.44,-0.32,+0.25,51.538528,-0.0104065
2026-06-18T10:16:41.250776,+0.22,-0.31,-1.07,51.538528,-0.0104065
2026-06-18T10:16:41.343150,+0.10,-0.05,-0.96,51.538528,-0.0104065
2026-06-18T10:16:41.397565,+0.10,-0.18,-0.83,51.538528,-0.0104065
2026-06-18T10:16:41.460118,+0.54,-0.73,-1.01,51.538528,-0.0104065
2026-06-18T10:16:41.517450,+0.13,-0.27,-0.98,51.538528,-0.0104065
2026-06-18T10:16:41.581620,+0.17,-0.25,-1.12,51.538528,-0.0104065
2026-06-18T10:16:41.667160,+0.10,-0.13,-0.97,51.538528,-0.0104065
2026-06-18T10:16:41.727532,+0.09,-0.12,-0.91,51.538528,-0.0104065
2026-06-18T10:16:41.786975,+0.14,-0.15,-1.08,51.538528,-0.0104065
2026-06-18T10:16:41.847615,+0.11,-0.08,-1.18,51.5385184,-0.0104522
2026-06-18T10:16:41.937982,+0.24,-0.24,-1.04,51.5385184,-0.0104522
2026-06-18T10:16:41.996995,+0.12,-0.14,-1.22,51.5385184,-0.0104522
2026-06-18T10:16:42.058272,+0.21,-0.24,-0.97,51.5385184,-0.0104522
2026-06-18T10:16:42.119795,+0.16,-0.21,-0.66,51.5385184,-0.0104522
2026-06-18T10:16:42.180939,+0.00,-0.07,-1.24,51.5385184,-0.0104522
2026-06-18T10:16:42.269962,+0.14,-0.16,-1.04,51.5385184,-0.0104522
2026-06-18T10:16:42.329711,+0.17,-0.16,-0.91,51.5385184,-0.0104522
2026-06-18T10:16:42.390413,+0.13,-0.19,-1.19,51.5385184,-0.0104522
2026-06-18T10:16:42.447305,+0.15,-0.25,-0.65,51.5385184,-0.0104522
2026-06-18T10:16:42.515763,+0.17,-0.08,-0.89,51.5385184,-0.0104522
2026-06-18T10:16:42.606763,+0.06,-0.12,-1.05,51.5385184,-0.0104522
2026-06-18T10:16:42.657779,+0.18,-0.25,-0.81,51.5385184,-0.0104522
2026-06-18T10:16:42.720785,+0.04,-0.12,-0.76,51.5385184,-0.0104522
2026-06-18T10:16:42.779995,+0.23,-0.35,-1.08,51.5385184,-0.0104522
2026-06-18T10:16:42.836504,+0.12,-0.11,-0.94,51.5385095,-0.0104979
2026-06-18T10:16:42.927537,+0.15,-0.16,-1.14,51.5385095,-0.0104979
2026-06-18T10:16:42.988735,+0.09,-0.13,-1.08,51.5385095,-0.0104979
2026-06-18T10:16:43.050199,+0.13,-0.18,-1.18,51.5385095,-0.0104979
2026-06-18T10:16:43.108673,+0.17,-0.20,-0.98,51.5385095,-0.0104979
2026-06-18T10:16:43.170551,+0.09,-0.13,-1.05,51.5385095,-0.0104979
2026-06-18T10:16:43.259492,+0.14,-0.16,-0.93,51.5385095,-0.0104979
2026-06-18T10:16:43.316641,+0.24,-0.07,-0.96,51.5385095,-0.0104979
2026-06-18T10:16:43.379400,+0.26,-0.21,-0.69,51.5385095,-0.0104979
2026-06-18T10:16:43.437416,+0.21,+0.01,-0.81,51.5385095,-0.0104979
2026-06-18T10:16:43.498796,+0.22,-0.18,-1.01,51.5385095,-0.0104979
2026-06-18T10:16:43.587182,+0.17,-0.15,-0.67,51.5385095,-0.0104979
2026-06-18T10:16:43.647037,+0.21,-0.18,-0.84,51.5385095,-0.0104979
2026-06-18T10:16:43.707619,-0.07,-0.14,-1.21,51.5385095,-0.0104979
2026-06-18T10:16:43.766465,+0.17,-0.21,-1.10,51.5385095,-0.0104979
2026-06-18T10:16:43.858396,+0.11,-0.19,-0.81,51.5384976,-0.0105447
2026-06-18T10:16:43.917633,+0.19,-0.25,-1.18,51.5384976,-0.0105447
2026-06-18T10:16:43.977076,+0.10,-0.23,-0.83,51.5384976,-0.0105447
2026-06-18T10:16:44.035793,+0.06,-0.16,-0.98,51.5384976,-0.0105447
2026-06-18T10:16:44.132163,+0.09,-0.11,-0.88,51.5384976,-0.0105447
2026-06-18T10:16:44.216212,+0.09,-0.08,-0.95,51.5384976,-0.0105447
2026-06-18T10:16:44.246542,+0.13,-0.12,-0.86,51.5384976,-0.0105447
2026-06-18T10:16:44.311723,+0.21,-0.18,-0.81,51.5384976,-0.0105447
2026-06-18T10:16:44.370548,+0.16,-0.17,-0.90,51.5384976,-0.0105447
2026-06-18T10:16:44.457818,+0.12,-0.08,-1.13,51.5384976,-0.0105447
2026-06-18T10:16:44.520480,+0.13,-0.16,-0.99,51.5384976,-0.0105447
2026-06-18T10:16:44.580895,+0.31,-0.25,-0.82,51.5384976,-0.0105447
2026-06-18T10:16:44.639818,+0.25,-0.29,-1.00,51.5384976,-0.0105447
2026-06-18T10:16:44.700399,+0.09,-0.06,-1.28,51.5384976,-0.0105447
2026-06-18T10:16:44.790977,+0.05,-0.15,-0.93,51.5384976,-0.0105447
2026-06-18T10:16:44.846983,+0.09,-0.24,-1.03,51.5384868,-0.0105935
2026-06-18T10:16:44.910554,+0.00,-0.08,-1.49,51.5384868,-0.0105935
2026-06-18T10:16:44.966795,+0.10,-0.25,-1.04,51.5384868,-0.0105935
2026-06-18T10:16:45.027910,+0.20,-0.35,-0.54,51.5384868,-0.0105935
2026-06-18T10:16:45.116902,+0.05,-0.15,-0.98,51.5384868,-0.0105935
2026-06-18T10:16:45.176982,+0.26,-0.30,-0.65,51.5384868,-0.0105935
2026-06-18T10:16:45.237464,+0.19,-0.19,-0.85,51.5384868,-0.0105935
2026-06-18T10:16:45.297007,+0.04,-0.03,-0.84,51.5384868,-0.0105935
2026-06-18T10:16:45.357167,+0.18,-0.09,-0.81,51.5384868,-0.0105935
2026-06-18T10:16:45.449408,+0.15,-0.19,-0.89,51.5384868,-0.0105935
2026-06-18T10:16:45.508161,+0.22,-0.24,-0.92,51.5384868,-0.0105935
2026-06-18T10:16:45.567543,+0.19,-0.16,-0.96,51.5384868,-0.0105935
2026-06-18T10:16:45.630330,+0.19,-0.10,-0.93,51.5384868,-0.0105935
2026-06-18T10:16:45.688449,+0.17,-0.27,-1.04,51.5384868,-0.0105935
2026-06-18T10:16:45.806654,+0.19,-0.22,-0.82,51.5384774,-0.0106481
2026-06-18T10:16:45.836185,+0.18,-0.09,-0.70,51.5384774,-0.0106481
2026-06-18T10:16:45.899036,+0.10,-0.15,-0.86,51.5384774,-0.0106481
2026-06-18T10:16:45.960106,+0.14,-0.16,-0.93,51.5384774,-0.0106481
2026-06-18T10:16:46.050743,+0.07,-0.26,-0.77,51.5384774,-0.0106481
2026-06-18T10:16:46.110480,+0.18,-0.29,-0.63,51.5384774,-0.0106481
2026-06-18T10:16:46.168551,+0.02,-0.15,-0.75,51.5384774,-0.0106481
2026-06-18T10:16:46.229417,+0.06,-0.17,-0.93,51.5384774,-0.0106481
2026-06-18T10:16:46.289380,+0.04,-0.02,-0.92,51.5384774,-0.0106481
2026-06-18T10:16:46.377744,+0.03,-0.02,-1.22,51.5384774,-0.0106481
2026-06-18T10:16:46.437843,+0.13,-0.08,-0.94,51.5384774,-0.0106481
2026-06-18T10:16:46.533695,+0.09,-0.12,-0.95,51.5384774,-0.0106481
2026-06-18T10:16:46.556928,+0.18,-0.18,-0.90,51.5384774,-0.0106481
2026-06-18T10:16:46.621429,+0.22,-0.26,-1.06,51.5384774,-0.0106481
2026-06-18T10:16:46.710662,+0.17,-0.21,-1.14,51.5384774,-0.0106481
2026-06-18T10:16:46.771112,+0.10,-0.15,-1.04,51.5384774,-0.0106481
2026-06-18T10:16:46.826835,+0.09,-0.07,-1.12,51.5384686,-0.0107005
2026-06-18T10:16:46.890613,+0.19,-0.12,-0.95,51.5384686,-0.0107005
2026-06-18T10:16:46.946901,+0.13,-0.12,-1.14,51.5384686,-0.0107005
2026-06-18T10:16:47.040945,+0.23,-0.30,-0.99,51.5384686,-0.0107005
2026-06-18T10:16:47.098229,+0.30,-0.27,-0.84,51.5384686,-0.0107005
2026-06-18T10:16:47.158813,+0.08,-0.02,-1.12,51.5384686,-0.0107005
2026-06-18T10:16:47.249502,+0.15,-0.31,-0.88,51.5384686,-0.0107005
2026-06-18T10:16:47.277219,+0.09,-0.15,-0.94,51.5384686,-0.0107005
2026-06-18T10:16:47.366368,+0.15,-0.08,-1.18,51.5384686,-0.0107005
2026-06-18T10:16:47.428957,+0.09,-0.16,-0.81,51.5384686,-0.0107005
2026-06-18T10:16:47.491177,+0.21,-0.17,-1.05,51.5384686,-0.0107005
2026-06-18T10:16:47.550122,+0.20,-0.18,-0.97,51.5384686,-0.0107005
2026-06-18T10:16:47.609745,+0.17,-0.27,-0.98,51.5384686,-0.0107005
2026-06-18T10:16:47.700457,+0.09,-0.00,-1.21,51.5384686,-0.0107005
2026-06-18T10:16:47.761700,+0.17,-0.21,-1.06,51.5384686,-0.0107005
2026-06-18T10:16:47.822379,+0.20,-0.26,-0.88,51.5384591,-0.010754
2026-06-18T10:16:47.879668,+0.20,-0.25,-1.02,51.5384591,-0.010754
2026-06-18T10:16:47.971020,+0.20,-0.14,-1.27,51.5384591,-0.010754
2026-06-18T10:16:48.029330,+0.19,-0.08,-1.08,51.5384591,-0.010754
2026-06-18T10:16:48.088380,+0.12,-0.16,-1.10,51.5384591,-0.010754
2026-06-18T10:16:48.151996,+0.10,-0.17,-1.00,51.5384591,-0.010754
2026-06-18T10:16:48.210639,+0.15,-0.14,-1.21,51.5384591,-0.010754
2026-06-18T10:16:48.302631,+0.20,-0.31,-0.75,51.5384591,-0.010754
2026-06-18T10:16:48.357844,+0.15,-0.25,-0.91,51.5384591,-0.010754
2026-06-18T10:16:48.420824,-0.05,-0.09,-1.12,51.5384591,-0.010754
2026-06-18T10:16:48.479815,+0.32,-0.31,-0.65,51.5384591,-0.010754
2026-06-18T10:16:48.538083,+0.01,-0.11,-0.75,51.5384591,-0.010754
2026-06-18T10:16:48.629397,+0.15,-0.16,-1.01,51.5384591,-0.010754
2026-06-18T10:16:48.689152,+0.24,-0.26,-0.88,51.5384591,-0.010754
2026-06-18T10:16:48.748940,+0.15,-0.07,-0.96,51.5384591,-0.010754
2026-06-18T10:16:48.807669,+0.15,-0.13,-1.10,51.5384491,-0.0108072
2026-06-18T10:16:48.868451,+0.12,-0.15,-0.83,51.5384491,-0.0108072
2026-06-18T10:16:48.958067,+0.13,-0.20,-1.04,51.5384491,-0.0108072
2026-06-18T10:16:49.018487,+0.11,-0.12,-0.93,51.5384491,-0.0108072
2026-06-18T10:16:49.078425,+0.19,-0.21,-0.94,51.5384491,-0.0108072
2026-06-18T10:16:49.138997,+0.09,-0.09,-0.84,51.5384491,-0.0108072
2026-06-18T10:16:49.197253,+0.10,-0.17,-1.03,51.5384491,-0.0108072
2026-06-18T10:16:49.288593,+0.05,-0.12,-1.22,51.5384491,-0.0108072
2026-06-18T10:16:49.348022,+0.10,-0.15,-1.01,51.5384491,-0.0108072
2026-06-18T10:16:49.407640,+0.19,-0.30,-0.89,51.5384491,-0.0108072
2026-06-18T10:16:49.472465,+0.09,-0.12,-1.02,51.5384491,-0.0108072
2026-06-18T10:16:49.527772,+0.16,-0.16,-1.04,51.5384491,-0.0108072
2026-06-18T10:16:49.617921,+0.19,-0.21,-0.96,51.5384491,-0.0108072
2026-06-18T10:16:49.681045,+0.12,-0.10,-1.20,51.5384491,-0.0108072
2026-06-18T10:16:49.741297,+0.30,-0.31,-0.85,51.5384491,-0.0108072
2026-06-18T10:16:49.799020,+0.30,-0.25,-0.84,51.5384491,-0.0108072
2026-06-18T10:16:49.862601,+0.16,-0.12,-1.00,51.5384411,-0.0108602
2026-06-18T10:16:49.948206,+0.28,-0.26,-0.60,51.5384411,-0.0108602
2026-06-18T10:16:50.007533,+0.07,-0.06,-1.05,51.5384411,-0.0108602
2026-06-18T10:16:50.068939,+0.15,-0.17,-0.79,51.5384411,-0.0108602
2026-06-18T10:16:50.157666,+0.18,-0.17,-0.98,51.5384411,-0.0108602
2026-06-18T10:16:50.223490,-0.02,-0.04,-1.13,51.5384411,-0.0108602
2026-06-18T10:16:50.281746,+0.12,-0.21,-0.77,51.5384411,-0.0108602
2026-06-18T10:16:50.337686,+0.13,-0.25,-0.76,51.5384411,-0.0108602
2026-06-18T10:16:50.402625,+0.14,-0.22,-1.06,51.5384411,-0.0108602
2026-06-18T10:16:50.490017,+0.03,-0.08,-1.05,51.5384411,-0.0108602
2026-06-18T10:16:50.550325,+0.16,-0.14,-0.95,51.5384411,-0.0108602
2026-06-18T10:16:50.607143,+0.10,-0.19,-0.78,51.5384411,-0.0108602
2026-06-18T10:16:50.667094,+0.07,-0.19,-1.04,51.5384411,-0.0108602
2026-06-18T10:16:50.727824,+0.17,-0.13,-1.01,51.5384411,-0.0108602
2026-06-18T10:16:50.817823,+0.12,-0.11,-0.99,51.538434,-0.010915
2026-06-18T10:16:50.878939,+0.18,-0.05,-0.90,51.538434,-0.010915
2026-06-18T10:16:50.942792,+0.31,-0.35,-0.93,51.538434,-0.010915
2026-06-18T10:16:51.000961,+0.17,-0.08,-0.93,51.538434,-0.010915
2026-06-18T10:16:51.058727,+0.14,-0.13,-0.98,51.538434,-0.010915
2026-06-18T10:16:51.148377,+0.14,-0.25,-0.79,51.538434,-0.010915
2026-06-18T10:16:51.237158,+0.13,-0.16,-0.79,51.538434,-0.010915
2026-06-18T10:16:51.266839,+0.13,-0.21,-1.05,51.538434,-0.010915
2026-06-18T10:16:51.328091,+0.15,-0.18,-0.70,51.538434,-0.010915
2026-06-18T10:16:51.387496,+0.20,-0.25,-0.87,51.538434,-0.010915
2026-06-18T10:16:51.479204,+0.18,-0.23,-0.98,51.538434,-0.010915
2026-06-18T10:16:51.537629,+0.11,-0.14,-0.91,51.538434,-0.010915
2026-06-18T10:16:51.597824,+0.11,-0.20,-0.83,51.538434,-0.010915
2026-06-18T10:16:51.657411,+0.08,-0.16,-1.13,51.538434,-0.010915
2026-06-18T10:16:51.717528,+0.20,-0.13,-0.95,51.538434,-0.010915
2026-06-18T10:16:51.809317,+0.19,-0.12,-0.86,51.538434,-0.010915
2026-06-18T10:16:51.867557,+0.12,-0.17,-1.06,51.5384242,-0.0109676
2026-06-18T10:16:51.927413,+0.17,-0.15,-1.02,51.5384242,-0.0109676
2026-06-18T10:16:51.988856,+0.07,-0.02,-1.06,51.5384242,-0.0109676
2026-06-18T10:16:52.050607,+0.19,-0.16,-0.95,51.5384242,-0.0109676
2026-06-18T10:16:52.140999,+0.10,-0.14,-1.01,51.5384242,-0.0109676
2026-06-18T10:16:52.201244,+0.12,-0.09,-1.07,51.5384242,-0.0109676
2026-06-18T10:16:52.260536,+0.16,-0.18,-1.12,51.5384242,-0.0109676
2026-06-18T10:16:52.318380,+0.16,-0.14,-0.99,51.5384242,-0.0109676
2026-06-18T10:16:52.408142,+0.21,-0.28,-0.77,51.5384242,-0.0109676
2026-06-18T10:16:52.471022,+0.22,-0.27,-0.97,51.5384242,-0.0109676
2026-06-18T10:16:52.528289,+0.16,-0.17,-1.00,51.5384242,-0.0109676
2026-06-18T10:16:52.589727,+0.10,-0.16,-0.97,51.5384242,-0.0109676
2026-06-18T10:16:52.647027,+0.20,-0.20,-0.92,51.5384242,-0.0109676
2026-06-18T10:16:52.742906,+0.14,-0.19,-0.95,51.5384242,-0.0109676
2026-06-18T10:16:52.796400,+0.17,-0.22,-0.87,51.5384242,-0.0109676
2026-06-18T10:16:52.858086,+0.12,-0.14,-1.10,51.5384122,-0.0110187
2026-06-18T10:16:52.917940,+0.15,-0.01,-0.98,51.5384122,-0.0110187
2026-06-18T10:16:52.980499,+0.24,-0.22,-0.83,51.5384122,-0.0110187
2026-06-18T10:16:53.068365,+0.15,-0.07,-1.10,51.5384122,-0.0110187
2026-06-18T10:16:53.127800,+0.25,-0.16,-1.01,51.5384122,-0.0110187
2026-06-18T10:16:53.189367,+0.13,-0.24,-0.84,51.5384122,-0.0110187
2026-06-18T10:16:53.249806,+0.13,-0.23,-1.06,51.5384122,-0.0110187
2026-06-18T10:16:53.309315,+0.19,-0.18,-0.75,51.5384122,-0.0110187
2026-06-18T10:16:53.402436,+0.06,-0.08,-0.90,51.5384122,-0.0110187
2026-06-18T10:16:53.460275,+0.16,-0.18,-1.13,51.5384122,-0.0110187
2026-06-18T10:16:53.517479,+0.25,-0.32,-0.95,51.5384122,-0.0110187
2026-06-18T10:16:53.578883,+0.13,-0.19,-0.98,51.5384122,-0.0110187
2026-06-18T10:16:53.640154,+0.14,-0.10,-1.07,51.5384122,-0.0110187
2026-06-18T10:16:53.728842,+0.30,-0.33,-0.92,51.5384122,-0.0110187
2026-06-18T10:16:53.785646,+0.09,-0.17,-0.94,51.5384122,-0.0110187
2026-06-18T10:16:53.848849,+0.17,-0.16,-0.92,51.5384009,-0.0110674
2026-06-18T10:16:53.908464,+0.27,-0.30,-0.92,51.5384009,-0.0110674
2026-06-18T10:16:53.971549,+0.26,-0.37,-0.91,51.5384009,-0.0110674
2026-06-18T10:16:54.058469,+0.25,-0.25,-0.81,51.5384009,-0.0110674
2026-06-18T10:16:54.149799,+0.15,-0.14,-1.16,51.5384009,-0.0110674
2026-06-18T10:16:54.176047,+0.17,-0.13,-1.01,51.5384009,-0.0110674
2026-06-18T10:16:54.236182,+0.27,-0.21,-0.71,51.5384009,-0.0110674
2026-06-18T10:16:54.331479,+0.11,-0.14,-0.96,51.5384009,-0.0110674
2026-06-18T10:16:54.387766,+0.16,-0.25,-0.89,51.5384009,-0.0110674
2026-06-18T10:16:54.447939,+0.20,-0.19,-1.01,51.5384009,-0.0110674
2026-06-18T10:16:54.506849,+0.01,-0.11,-1.01,51.5384009,-0.0110674
2026-06-18T10:16:54.570065,+0.10,-0.19,-0.99,51.5384009,-0.0110674
2026-06-18T10:16:54.662926,+0.18,-0.26,-0.98,51.5384009,-0.0110674
2026-06-18T10:16:54.718472,+0.11,-0.17,-0.98,51.5384009,-0.0110674
2026-06-18T10:16:54.788299,+0.18,-0.24,-0.75,51.5384009,-0.0110674
2026-06-18T10:16:54.838222,+0.10,-0.14,-1.14,51.5383886,-0.011118
2026-06-18T10:16:54.900669,+0.16,-0.12,-0.93,51.5383886,-0.011118
2026-06-18T10:16:54.991336,+0.13,-0.13,-1.12,51.5383886,-0.011118
2026-06-18T10:16:55.047397,+0.18,-0.19,-0.76,51.5383886,-0.011118
2026-06-18T10:16:55.110259,+0.26,-0.25,-0.83,51.5383886,-0.011118
2026-06-18T10:16:55.167191,+0.12,-0.13,-0.97,51.5383886,-0.011118
2026-06-18T10:16:55.228874,+0.14,-0.13,-1.03,51.5383886,-0.011118
2026-06-18T10:16:55.321279,+0.48,-0.87,-0.45,51.5383886,-0.011118
2026-06-18T10:16:55.378576,+0.27,-0.28,-0.90,51.5383886,-0.011118
2026-06-18T10:16:55.437446,+0.13,-0.17,-1.04,51.5383886,-0.011118
2026-06-18T10:16:55.495606,+0.14,-0.17,-0.90,51.5383886,-0.011118
2026-06-18T10:16:55.558062,+0.24,-0.45,-1.58,51.5383886,-0.011118
2026-06-18T10:16:55.648162,+0.19,-0.28,-1.27,51.5383886,-0.011118
2026-06-18T10:16:55.709244,+0.30,-0.39,-0.48,51.5383886,-0.011118
2026-06-18T10:16:55.774762,-0.02,-0.14,-0.85,51.5383886,-0.011118
2026-06-18T10:16:55.827459,+0.02,-0.06,-1.11,51.5383744,-0.011167
2026-06-18T10:16:55.890048,+0.22,-0.17,-1.05,51.5383744,-0.011167
2026-06-18T10:16:55.979087,+0.18,-0.08,-0.92,51.5383744,-0.011167
2026-06-18T10:16:56.037894,+0.17,-0.30,-1.01,51.5383744,-0.011167
2026-06-18T10:16:56.097155,+0.12,-0.11,-1.04,51.5383744,-0.011167
2026-06-18T10:16:56.159477,+0.11,-0.15,-0.96,51.5383744,-0.011167
2026-06-18T10:16:56.247610,+0.17,-0.17,-0.98,51.5383744,-0.011167
2026-06-18T10:16:56.309685,+0.16,-0.13,-1.03,51.5383744,-0.011167
2026-06-18T10:16:56.370383,+0.25,-0.23,-1.10,51.5383744,-0.011167
2026-06-18T10:16:56.427673,+0.16,-0.18,-0.98,51.5383744,-0.011167
2026-06-18T10:16:56.489727,+0.18,-0.16,-0.92,51.5383744,-0.011167
2026-06-18T10:16:56.578743,+0.09,-0.11,-1.06,51.5383744,-0.011167
2026-06-18T10:16:56.637659,+0.16,-0.20,-0.88,51.5383744,-0.011167
2026-06-18T10:16:56.698841,+0.16,-0.24,-0.92,51.5383744,-0.011167
2026-06-18T10:16:56.761476,+0.13,-0.16,-0.99,51.5383744,-0.011167
2026-06-18T10:16:56.819511,+0.14,-0.19,-1.05,51.5383615,-0.0112184
2026-06-18T10:16:56.909454,+0.15,-0.17,-0.97,51.5383615,-0.0112184
2026-06-18T10:16:56.970535,+0.19,-0.30,-0.86,51.5383615,-0.0112184
2026-06-18T10:16:57.027468,+0.26,-0.25,-0.67,51.5383615,-0.0112184
2026-06-18T10:16:57.088435,+0.04,+0.00,-1.21,51.5383615,-0.0112184
2026-06-18T10:16:57.149607,+0.17,-0.12,-0.99,51.5383615,-0.0112184
2026-06-18T10:16:57.239442,+0.19,-0.19,-0.93,51.5383615,-0.0112184
2026-06-18T10:16:57.299090,+0.17,-0.18,-0.80,51.5383615,-0.0112184
2026-06-18T10:16:57.360576,+0.14,-0.14,-1.03,51.5383615,-0.0112184
2026-06-18T10:16:57.421143,+0.16,-0.19,-1.06,51.5383615,-0.0112184
2026-06-18T10:16:57.481952,+0.21,-0.27,-1.07,51.5383615,-0.0112184
2026-06-18T10:16:57.568726,+0.16,-0.10,-0.84,51.5383615,-0.0112184
2026-06-18T10:16:57.631713,+0.10,-0.16,-1.09,51.5383615,-0.0112184
2026-06-18T10:16:57.690791,+0.12,-0.15,-1.05,51.5383615,-0.0112184
2026-06-18T10:16:57.748592,+0.14,-0.15,-0.98,51.5383615,-0.0112184
2026-06-18T10:16:57.806314,+0.21,-0.26,-0.93,51.5383478,-0.0112707
2026-06-18T10:16:57.901917,+0.23,-0.31,-0.82,51.5383478,-0.0112707
2026-06-18T10:16:57.960788,+0.15,-0.17,-0.86,51.5383478,-0.0112707
2026-06-18T10:16:58.028234,+0.10,-0.09,-1.13,51.5383478,-0.0112707
2026-06-18T10:16:58.077572,+0.24,-0.16,-0.89,51.5383478,-0.0112707
2026-06-18T10:16:58.141351,+0.11,-0.14,-1.02,51.5383478,-0.0112707
2026-06-18T10:16:58.229305,+0.21,-0.26,-0.72,51.5383478,-0.0112707
2026-06-18T10:16:58.288029,+0.19,-0.03,-1.01,51.5383478,-0.0112707
2026-06-18T10:16:58.347759,+0.16,-0.20,-1.19,51.5383478,-0.0112707
2026-06-18T10:16:58.444308,+0.22,-0.30,-0.90,51.5383478,-0.0112707
2026-06-18T10:16:58.499858,+0.17,-0.10,-0.93,51.5383478,-0.0112707
2026-06-18T10:16:58.557162,-0.00,-0.05,-1.00,51.5383478,-0.0112707
2026-06-18T10:16:58.616998,+0.17,-0.18,-0.86,51.5383478,-0.0112707
2026-06-18T10:16:58.683772,+0.42,-0.49,-0.67,51.5383478,-0.0112707
2026-06-18T10:16:58.772566,+0.04,-0.09,-0.83,51.5383478,-0.0112707
2026-06-18T10:16:58.826702,+0.22,-0.30,-0.99,51.5383353,-0.0113234
2026-06-18T10:16:58.890526,+0.17,-0.21,-0.74,51.5383353,-0.0113234
2026-06-18T10:16:58.950534,+0.22,-0.25,-1.47,51.5383353,-0.0113234
2026-06-18T10:16:59.010572,+0.09,-0.18,-0.78,51.5383353,-0.0113234
2026-06-18T10:16:59.099199,+0.20,-0.30,-0.78,51.5383353,-0.0113234
2026-06-18T10:16:59.162448,+0.10,-0.30,-1.20,51.5383353,-0.0113234
2026-06-18T10:16:59.218225,+0.24,-0.29,-0.94,51.5383353,-0.0113234
2026-06-18T10:16:59.282039,+0.08,+0.01,-0.95,51.5383353,-0.0113234
2026-06-18T10:16:59.343541,+0.02,+0.08,-0.91,51.5383353,-0.0113234
2026-06-18T10:16:59.428558,+0.18,-0.18,-1.07,51.5383353,-0.0113234
2026-06-18T10:16:59.488112,+0.17,-0.20,-0.92,51.5383353,-0.0113234
2026-06-18T10:16:59.549637,+0.22,-0.24,-0.89,51.5383353,-0.0113234
2026-06-18T10:16:59.610770,+0.17,-0.15,-0.94,51.5383353,-0.0113234
2026-06-18T10:16:59.671559,+0.15,-0.16,-1.04,51.5383353,-0.0113234
2026-06-18T10:16:59.759916,+0.17,-0.17,-0.88,51.5383353,-0.0113234
2026-06-18T10:16:59.848653,+0.10,-0.07,-1.01,51.5383226,-0.0113762
2026-06-18T10:16:59.879541,+0.14,-0.09,-1.02,51.5383226,-0.0113762
2026-06-18T10:16:59.967824,+0.15,-0.16,-0.77,51.5383226,-0.0113762
2026-06-18T10:16:59.997747,+0.14,-0.18,-0.97,51.5383226,-0.0113762
2026-06-18T10:17:00.086807,+0.15,-0.20,-0.91,51.5383226,-0.0113762
2026-06-18T10:17:00.149824,+0.05,-0.15,-0.99,51.5383226,-0.0113762
2026-06-18T10:17:00.209305,+0.16,-0.22,-0.86,51.5383226,-0.0113762
2026-06-18T10:17:00.268669,+0.22,-0.21,-0.93,51.5383226,-0.0113762
2026-06-18T10:17:00.362453,+0.11,-0.05,-1.21,51.5383226,-0.0113762
2026-06-18T10:17:00.416316,+0.17,-0.18,-1.01,51.5383226,-0.0113762
2026-06-18T10:17:00.475737,+0.10,-0.09,-0.97,51.5383226,-0.0113762
2026-06-18T10:17:00.537066,+0.14,-0.18,-1.04,51.5383226,-0.0113762
2026-06-18T10:17:00.597755,+0.21,-0.30,-0.97,51.5383226,-0.0113762
2026-06-18T10:17:00.687524,+0.18,-0.17,-0.97,51.5383226,-0.0113762
2026-06-18T10:17:00.748130,+0.16,-0.22,-0.92,51.5383226,-0.0113762
2026-06-18T10:17:00.835386,+0.19,-0.21,-0.95,51.5383103,-0.0114286
2026-06-18T10:17:00.867387,+0.07,-0.19,-1.08,51.5383103,-0.0114286
2026-06-18T10:17:00.928596,+0.10,-0.16,-1.07,51.5383103,-0.0114286
2026-06-18T10:17:01.016276,+0.15,-0.18,-1.01,51.5383103,-0.0114286
2026-06-18T10:17:01.077951,+0.12,-0.23,-0.96,51.5383103,-0.0114286
2026-06-18T10:17:01.141138,+0.09,-0.18,-0.91,51.5383103,-0.0114286
2026-06-18T10:17:01.199946,+0.16,-0.25,-1.01,51.5383103,-0.0114286
2026-06-18T10:17:01.257286,+0.20,-0.20,-0.87,51.5383103,-0.0114286
2026-06-18T10:17:01.347254,+0.20,-0.14,-1.02,51.5383103,-0.0114286
2026-06-18T10:17:01.407127,+0.16,-0.06,-1.12,51.5383103,-0.0114286
2026-06-18T10:17:01.468910,+0.14,-0.17,-0.89,51.5383103,-0.0114286
2026-06-18T10:17:01.529725,+0.12,-0.25,-0.91,51.5383103,-0.0114286
2026-06-18T10:17:01.589894,+0.12,-0.13,-1.00,51.5383103,-0.0114286
2026-06-18T10:17:01.677756,+0.14,-0.12,-1.14,51.5383103,-0.0114286
2026-06-18T10:17:01.739946,+0.21,-0.22,-1.06,51.5383103,-0.0114286
2026-06-18T10:17:01.796377,+0.06,-0.03,-1.15,51.5382997,-0.0114825
2026-06-18T10:17:01.859555,+0.20,-0.14,-1.03,51.5382997,-0.0114825
2026-06-18T10:17:01.919381,+0.14,-0.18,-0.98,51.5382997,-0.0114825
2026-06-18T10:17:02.008207,+0.05,-0.12,-1.08,51.5382997,-0.0114825
2026-06-18T10:17:02.067859,+0.16,-0.26,-0.70,51.5382997,-0.0114825
2026-06-18T10:17:02.128655,+0.23,-0.26,-0.88,51.5382997,-0.0114825
2026-06-18T10:17:02.188943,+0.05,-0.11,-1.04,51.5382997,-0.0114825
2026-06-18T10:17:02.248989,+0.08,-0.13,-1.07,51.5382997,-0.0114825
2026-06-18T10:17:02.341114,+0.10,-0.16,-0.90,51.5382997,-0.0114825
2026-06-18T10:17:02.399115,+0.10,-0.20,-1.22,51.5382997,-0.0114825
2026-06-18T10:17:02.457778,+0.14,-0.17,-0.90,51.5382997,-0.0114825
2026-06-18T10:17:02.522519,+0.16,-0.18,-0.95,51.5382997,-0.0114825
2026-06-18T10:17:02.611013,+0.04,-0.06,-1.05,51.5382997,-0.0114825
2026-06-18T10:17:02.670060,+0.22,-0.31,-1.16,51.5382997,-0.0114825
2026-06-18T10:17:02.730976,+0.15,-0.15,-1.05,51.5382997,-0.0114825
2026-06-18T10:17:02.786794,+0.22,-0.24,-0.85,51.5382997,-0.0114825
2026-06-18T10:17:02.851058,+0.19,-0.16,-0.98,51.5382893,-0.0115345
2026-06-18T10:17:02.941770,+0.21,-0.20,-0.92,51.5382893,-0.0115345
2026-06-18T10:17:02.998663,+0.24,-0.23,-0.99,51.5382893,-0.0115345
2026-06-18T10:17:03.060704,+0.17,-0.10,-0.94,51.5382893,-0.0115345
2026-06-18T10:17:03.120931,+0.16,-0.01,-1.04,51.5382893,-0.0115345
2026-06-18T10:17:03.180505,+0.16,-0.13,-0.83,51.5382893,-0.0115345
2026-06-18T10:17:03.267513,+0.17,-0.28,-0.88,51.5382893,-0.0115345
2026-06-18T10:17:03.329913,+0.07,-0.06,-1.12,51.5382893,-0.0115345
2026-06-18T10:17:03.392970,+0.14,-0.21,-0.96,51.5382893,-0.0115345
2026-06-18T10:17:03.452149,+0.13,-0.22,-0.83,51.5382893,-0.0115345
2026-06-18T10:17:03.507064,+0.19,-0.21,-0.85,51.5382893,-0.0115345
2026-06-18T10:17:03.599707,+0.14,-0.13,-1.06,51.5382893,-0.0115345
2026-06-18T10:17:03.660704,+0.01,-0.02,-0.99,51.5382893,-0.0115345
2026-06-18T10:17:03.721887,+0.17,-0.23,-0.80,51.5382893,-0.0115345
2026-06-18T10:17:03.785494,+0.12,-0.15,-1.08,51.5382893,-0.0115345
2026-06-18T10:17:03.839066,+0.13,-0.16,-1.05,51.5382767,-0.0115852
2026-06-18T10:17:03.927819,+0.09,-0.16,-1.04,51.5382767,-0.0115852
2026-06-18T10:17:03.988339,+0.20,-0.27,-1.15,51.5382767,-0.0115852
2026-06-18T10:17:04.049751,+0.16,-0.23,-1.13,51.5382767,-0.0115852
2026-06-18T10:17:04.110203,+0.21,-0.25,-0.85,51.5382767,-0.0115852
2026-06-18T10:17:04.169727,+0.09,-0.08,-0.95,51.5382767,-0.0115852
2026-06-18T10:17:04.262226,+0.12,-0.11,-1.09,51.5382767,-0.0115852
2026-06-18T10:17:04.320790,+0.20,-0.22,-0.98,51.5382767,-0.0115852
2026-06-18T10:17:04.380522,+0.19,-0.27,-0.87,51.5382767,-0.0115852
2026-06-18T10:17:04.472107,+0.19,-0.31,-0.83,51.5382767,-0.0115852
2026-06-18T10:17:04.529689,+0.12,-0.16,-0.94,51.5382767,-0.0115852
2026-06-18T10:17:04.590169,+0.09,-0.23,-0.97,51.5382767,-0.0115852
2026-06-18T10:17:04.649730,+0.18,-0.18,-1.05,51.5382767,-0.0115852
2026-06-18T10:17:04.708784,+0.14,-0.12,-1.08,51.5382767,-0.0115852
2026-06-18T10:17:04.796621,+0.17,-0.15,-1.24,51.5382629,-0.011632
2026-06-18T10:17:04.861372,+0.27,-0.09,-0.78,51.5382629,-0.011632
2026-06-18T10:17:04.922445,+0.28,-0.22,-0.95,51.5382629,-0.011632
2026-06-18T10:17:04.979068,+0.23,-0.31,-1.04,51.5382629,-0.011632
2026-06-18T10:17:05.041087,+0.22,-0.15,-0.72,51.5382629,-0.011632
2026-06-18T10:17:05.132315,+0.14,-0.11,-1.12,51.5382629,-0.011632
2026-06-18T10:17:05.189259,+0.06,-0.07,-1.09,51.5382629,-0.011632
2026-06-18T10:17:05.252029,+0.14,-0.16,-0.84,51.5382629,-0.011632
2026-06-18T10:17:05.309664,+0.17,-0.21,-0.87,51.5382629,-0.011632
2026-06-18T10:17:05.371221,+0.15,-0.24,-0.98,51.5382629,-0.011632
2026-06-18T10:17:05.457715,+0.11,-0.17,-1.09,51.5382629,-0.011632
2026-06-18T10:17:05.518222,+0.10,-0.18,-0.86,51.5382629,-0.011632
2026-06-18T10:17:05.580025,+0.17,-0.24,-0.87,51.5382629,-0.011632
2026-06-18T10:17:05.640204,+0.10,-0.23,-1.03,51.5382629,-0.011632
2026-06-18T10:17:05.701068,+0.10,-0.15,-1.05,51.5382629,-0.011632
2026-06-18T10:17:05.816561,+0.19,-0.25,-0.93,51.5382515,-0.0116762
2026-06-18T10:17:05.845793,+0.15,-0.27,-0.65,51.5382515,-0.0116762
2026-06-18T10:17:05.909984,+0.10,-0.11,-1.00,51.5382515,-0.0116762
2026-06-18T10:17:05.971011,+0.24,-0.17,-1.00,51.5382515,-0.0116762
2026-06-18T10:17:06.030984,+0.20,-0.15,-0.97,51.5382515,-0.0116762
2026-06-18T10:17:06.123395,+0.17,-0.17,-1.09,51.5382515,-0.0116762
2026-06-18T10:17:06.180644,+0.20,-0.26,-0.99,51.5382515,-0.0116762
2026-06-18T10:17:06.242279,+0.17,-0.23,-0.79,51.5382515,-0.0116762
2026-06-18T10:17:06.298333,+0.06,-0.09,-1.12,51.5382515,-0.0116762
2026-06-18T10:17:06.360845,+0.03,-0.07,-1.22,51.5382515,-0.0116762
2026-06-18T10:17:06.451413,+0.13,-0.14,-0.90,51.5382515,-0.0116762
2026-06-18T10:17:06.509418,+0.24,-0.31,-0.84,51.5382515,-0.0116762
2026-06-18T10:17:06.570707,+0.10,-0.18,-0.96,51.5382515,-0.0116762
2026-06-18T10:17:06.630523,+0.13,-0.22,-1.13,51.5382515,-0.0116762
2026-06-18T10:17:06.717116,+0.08,-0.17,-0.88,51.5382515,-0.0116762
2026-06-18T10:17:06.780515,+0.06,-0.14,-1.01,51.5382515,-0.0116762
2026-06-18T10:17:06.837926,+0.06,-0.05,-1.04,51.5382382,-0.0117275
2026-06-18T10:17:06.899653,+0.14,-0.12,-1.00,51.5382382,-0.0117275
2026-06-18T10:17:06.958260,+0.17,-0.13,-1.14,51.5382382,-0.0117275
2026-06-18T10:17:07.048361,+0.23,-0.29,-1.05,51.5382382,-0.0117275
2026-06-18T10:17:07.108557,+0.20,-0.28,-0.95,51.5382382,-0.0117275
2026-06-18T10:17:07.168949,+0.16,-0.19,-0.99,51.5382382,-0.0117275
2026-06-18T10:17:07.257285,+0.23,-0.28,-0.79,51.5382382,-0.0117275
2026-06-18T10:17:07.289117,+0.15,-0.25,-0.99,51.5382382,-0.0117275
2026-06-18T10:17:07.377212,+0.07,-0.07,-1.03,51.5382382,-0.0117275
2026-06-18T10:17:07.440460,+0.20,-0.20,-0.97,51.5382382,-0.0117275
2026-06-18T10:17:07.497384,+0.09,-0.17,-1.00,51.5382382,-0.0117275
2026-06-18T10:17:07.557791,+0.12,-0.17,-0.91,51.5382382,-0.0117275
2026-06-18T10:17:07.620068,+0.09,-0.19,-1.03,51.5382382,-0.0117275
2026-06-18T10:17:07.710315,+0.10,-0.25,-0.91,51.5382382,-0.0117275
2026-06-18T10:17:07.773734,+0.09,-0.20,-1.09,51.5382382,-0.0117275
2026-06-18T10:17:07.827648,+0.14,-0.18,-0.98,51.5382276,-0.0117809
2026-06-18T10:17:07.890424,+0.17,-0.27,-1.06,51.5382276,-0.0117809
2026-06-18T10:17:07.946671,+0.13,-0.06,-1.20,51.5382276,-0.0117809
2026-06-18T10:17:08.042073,+0.23,-0.28,-0.84,51.5382276,-0.0117809
2026-06-18T10:17:08.103207,+0.10,-0.14,-1.29,51.5382276,-0.0117809
2026-06-18T10:17:08.160590,+0.25,-0.21,-1.01,51.5382276,-0.0117809
2026-06-18T10:17:08.216348,+0.25,-0.31,-0.82,51.5382276,-0.0117809
2026-06-18T10:17:08.279470,+0.10,-0.08,-1.12,51.5382276,-0.0117809
2026-06-18T10:17:08.371005,+0.02,-0.08,-1.17,51.5382276,-0.0117809
2026-06-18T10:17:08.428435,+0.30,-0.27,-0.85,51.5382276,-0.0117809
2026-06-18T10:17:08.490248,+0.12,-0.10,-0.90,51.5382276,-0.0117809
2026-06-18T10:17:08.549498,+0.13,-0.20,-0.98,51.5382276,-0.0117809
2026-06-18T10:17:08.642979,+0.13,-0.15,-0.95,51.5382276,-0.0117809
2026-06-18T10:17:08.698509,+0.17,-0.34,-0.76,51.5382276,-0.0117809
2026-06-18T10:17:08.758008,+0.17,-0.23,-0.90,51.5382276,-0.0117809
2026-06-18T10:17:08.846546,+0.03,-0.09,-1.04,51.5382154,-0.0118326
2026-06-18T10:17:08.878219,+0.12,-0.12,-0.92,51.5382154,-0.0118326
2026-06-18T10:17:08.968703,+0.11,-0.17,-0.95,51.5382154,-0.0118326
2026-06-18T10:17:09.030192,+0.09,-0.04,-1.13,51.5382154,-0.0118326
2026-06-18T10:17:09.091708,+0.12,-0.18,-1.04,51.5382154,-0.0118326
2026-06-18T10:17:09.158885,+0.19,-0.19,-0.89,51.5382154,-0.0118326
2026-06-18T10:17:09.208641,+0.23,-0.20,-0.92,51.5382154,-0.0118326
2026-06-18T10:17:09.299469,+0.19,-0.17,-1.16,51.5382154,-0.0118326
2026-06-18T10:17:09.357359,+0.08,-0.19,-0.99,51.5382154,-0.0118326
2026-06-18T10:17:09.420616,+0.14,-0.19,-0.86,51.5382154,-0.0118326
2026-06-18T10:17:09.477269,+0.10,-0.14,-1.15,51.5382154,-0.0118326
2026-06-18T10:17:09.540549,+0.02,-0.18,-0.90,51.5382154,-0.0118326
2026-06-18T10:17:09.630490,+0.09,-0.12,-1.05,51.5382154,-0.0118326
2026-06-18T10:17:09.720905,+0.14,-0.27,-0.94,51.5382154,-0.0118326
2026-06-18T10:17:09.753428,+0.17,-0.21,-0.78,51.5382154,-0.0118326
2026-06-18T10:17:09.807795,+0.10,-0.10,-1.24,51.5382031,-0.0118842
2026-06-18T10:17:09.869305,+0.13,-0.11,-0.94,51.5382031,-0.0118842
2026-06-18T10:17:09.986738,+0.21,-0.26,-0.89,51.5382031,-0.0118842
2026-06-18T10:17:10.015836,+0.09,-0.10,-1.05,51.5382031,-0.0118842
2026-06-18T10:17:10.078493,+0.15,-0.34,-1.20,51.5382031,-0.0118842
2026-06-18T10:17:10.136751,+0.13,-0.13,-0.89,51.5382031,-0.0118842
2026-06-18T10:17:10.199679,+0.14,-0.13,-1.00,51.5382031,-0.0118842
2026-06-18T10:17:10.291502,+0.25,-0.19,-1.03,51.5382031,-0.0118842
2026-06-18T10:17:10.351602,+0.12,-0.15,-1.14,51.5382031,-0.0118842
2026-06-18T10:17:10.408035,+0.10,-0.19,-0.90,51.5382031,-0.0118842
2026-06-18T10:17:10.466989,+0.15,-0.15,-1.07,51.5382031,-0.0118842
2026-06-18T10:17:10.562829,+0.10,-0.17,-0.88,51.5382031,-0.0118842
2026-06-18T10:17:10.617516,+0.11,-0.22,-0.96,51.5382031,-0.0118842
2026-06-18T10:17:10.677930,+0.13,-0.19,-1.13,51.5382031,-0.0118842
2026-06-18T10:17:10.740577,+0.11,-0.27,-1.02,51.5382031,-0.0118842
2026-06-18T10:17:10.827157,+0.07,-0.13,-0.98,51.5381916,-0.0119375
2026-06-18T10:17:10.889300,+0.12,-0.06,-0.95,51.5381916,-0.0119375
2026-06-18T10:17:10.949714,+0.08,-0.14,-0.88,51.5381916,-0.0119375
2026-06-18T10:17:11.006197,+0.24,-0.31,-1.01,51.5381916,-0.0119375
2026-06-18T10:17:11.067659,+0.22,-0.23,-0.81,51.5381916,-0.0119375
2026-06-18T10:17:11.157143,+0.28,-0.19,-0.88,51.5381916,-0.0119375
2026-06-18T10:17:11.218474,+0.10,-0.08,-0.92,51.5381916,-0.0119375
2026-06-18T10:17:11.277699,+0.25,-0.17,-0.89,51.5381916,-0.0119375
2026-06-18T10:17:11.338013,+0.30,-0.35,-0.74,51.5381916,-0.0119375
2026-06-18T10:17:11.400498,+0.17,-0.26,-0.98,51.5381916,-0.0119375
2026-06-18T10:17:11.490501,+0.08,-0.07,-1.06,51.5381916,-0.0119375
2026-06-18T10:17:11.547335,+0.12,-0.16,-1.04,51.5381916,-0.0119375
2026-06-18T10:17:11.606648,+0.01,-0.06,-0.96,51.5381916,-0.0119375
2026-06-18T10:17:11.667127,+0.23,-0.29,-0.80,51.5381916,-0.0119375
2026-06-18T10:17:11.729072,+0.13,-0.18,-0.97,51.5381916,-0.0119375
2026-06-18T10:17:11.817371,+0.15,-0.24,-1.02,51.5381813,-0.0119975
2026-06-18T10:17:11.878712,+0.21,-0.10,-0.87,51.5381813,-0.0119975
2026-06-18T10:17:11.937221,+0.13,-0.15,-1.02,51.5381813,-0.0119975
2026-06-18T10:17:11.999541,+0.15,-0.17,-0.84,51.5381813,-0.0119975
2026-06-18T10:17:12.057574,+0.12,-0.03,-1.15,51.5381813,-0.0119975
2026-06-18T10:17:12.148542,+0.12,-0.19,-0.83,51.5381813,-0.0119975
2026-06-18T10:17:12.207736,+0.16,-0.19,-0.87,51.5381813,-0.0119975
2026-06-18T10:17:12.267264,+0.20,-0.20,-0.99,51.5381813,-0.0119975
2026-06-18T10:17:12.358017,+0.15,-0.21,-1.23,51.5381813,-0.0119975
2026-06-18T10:17:12.418886,+0.10,-0.25,-0.89,51.5381813,-0.0119975
2026-06-18T10:17:12.477093,+0.24,-0.16,-0.99,51.5381813,-0.0119975
2026-06-18T10:17:12.539172,+0.05,-0.11,-1.02,51.5381813,-0.0119975
2026-06-18T10:17:12.597615,+0.11,-0.20,-1.15,51.5381813,-0.0119975
2026-06-18T10:17:12.655960,+0.03,+0.01,-1.08,51.5381813,-0.0119975
2026-06-18T10:17:12.748378,+0.08,-0.31,-0.96,51.5381813,-0.0119975
2026-06-18T10:17:12.806640,+0.08,-0.18,-1.02,51.5381733,-0.0120548
2026-06-18T10:17:12.866107,+0.12,-0.12,-1.18,51.5381733,-0.0120548
2026-06-18T10:17:12.928095,+0.21,-0.24,-1.00,51.5381733,-0.0120548
2026-06-18T10:17:13.017595,+0.12,-0.21,-1.18,51.5381733,-0.0120548
2026-06-18T10:17:13.076943,+0.14,-0.05,-1.02,51.5381733,-0.0120548
2026-06-18T10:17:13.138549,+0.22,-0.13,-1.09,51.5381733,-0.0120548
2026-06-18T10:17:13.199128,+0.12,-0.09,-1.01,51.5381733,-0.0120548
2026-06-18T10:17:13.257913,+0.23,-0.28,-1.10,51.5381733,-0.0120548
2026-06-18T10:17:13.348422,+0.25,-0.21,-0.86,51.5381733,-0.0120548
2026-06-18T10:17:13.407648,+0.10,-0.20,-1.09,51.5381733,-0.0120548
2026-06-18T10:17:13.466829,+0.14,-0.14,-1.04,51.5381733,-0.0120548
2026-06-18T10:17:13.528184,+0.04,-0.04,-1.05,51.5381733,-0.0120548
2026-06-18T10:17:13.587249,+0.19,-0.26,-1.10,51.5381733,-0.0120548
2026-06-18T10:17:13.647339,+0.20,-0.26,-0.80,51.5381733,-0.0120548
2026-06-18T10:17:13.737329,+0.04,-0.07,-1.01,51.5381733,-0.0120548
2026-06-18T10:17:13.796054,+0.16,-0.17,-0.98,51.5381733,-0.0120548
2026-06-18T10:17:13.858104,+0.15,-0.13,-1.05,51.5381634,-0.012112
2026-06-18T10:17:13.917922,+0.10,-0.16,-0.85,51.5381634,-0.012112
2026-06-18T10:17:13.977761,+0.15,-0.12,-0.83,51.5381634,-0.012112
2026-06-18T10:17:14.067424,+0.29,-0.34,-1.05,51.5381634,-0.012112
2026-06-18T10:17:14.127320,+0.17,-0.16,-1.01,51.5381634,-0.012112
2026-06-18T10:17:14.187211,+0.22,-0.09,-0.82,51.5381634,-0.012112
2026-06-18T10:17:14.247046,+0.21,-0.25,-0.95,51.5381634,-0.012112
2026-06-18T10:17:14.307109,+0.15,-0.16,-1.01,51.5381634,-0.012112
2026-06-18T10:17:14.397519,+0.13,-0.21,-0.73,51.5381634,-0.012112
2026-06-18T10:17:14.457417,+0.08,-0.10,-0.94,51.5381634,-0.012112
2026-06-18T10:17:14.517758,+0.15,-0.18,-1.18,51.5381634,-0.012112
2026-06-18T10:17:14.577074,+0.15,-0.19,-0.86,51.5381634,-0.012112
2026-06-18T10:17:14.636698,+0.12,-0.18,-0.84,51.5381634,-0.012112
2026-06-18T10:17:14.729080,+0.00,-0.05,-1.08,51.5381634,-0.012112
2026-06-18T10:17:14.786585,+0.18,-0.24,-1.10,51.5381634,-0.012112
2026-06-18T10:17:14.850627,+0.15,-0.17,-0.97,51.5381531,-0.0121689
2026-06-18T10:17:14.907638,+0.11,-0.16,-0.84,51.5381531,-0.0121689
2026-06-18T10:17:15.001412,+0.16,-0.17,-0.95,51.5381531,-0.0121689
2026-06-18T10:17:15.062259,+0.15,-0.12,-1.16,51.5381531,-0.0121689
2026-06-18T10:17:15.118771,+0.21,-0.23,-0.88,51.5381531,-0.0121689
2026-06-18T10:17:15.180125,+0.27,-0.20,-0.82,51.5381531,-0.0121689
2026-06-18T10:17:15.239255,+0.14,-0.10,-1.09,51.5381531,-0.0121689
2026-06-18T10:17:15.331768,+0.17,-0.05,-0.95,51.5381531,-0.0121689
2026-06-18T10:17:15.388127,+0.16,-0.22,-0.97,51.5381531,-0.0121689
2026-06-18T10:17:15.448200,+0.16,-0.29,-0.98,51.5381531,-0.0121689
2026-06-18T10:17:15.512236,+0.09,-0.16,-0.88,51.5381531,-0.0121689
2026-06-18T10:17:15.570315,+0.05,-0.13,-1.14,51.5381531,-0.0121689
2026-06-18T10:17:15.658184,+0.11,-0.09,-0.79,51.5381531,-0.0121689
2026-06-18T10:17:15.716949,+0.17,-0.15,-0.96,51.5381531,-0.0121689
2026-06-18T10:17:15.779246,+0.25,-0.36,-0.62,51.5381531,-0.0121689
2026-06-18T10:17:15.838839,+0.22,-0.26,-0.90,51.5381405,-0.0122258
2026-06-18T10:17:15.897577,+0.00,-0.03,-1.10,51.5381405,-0.0122258
2026-06-18T10:17:15.986979,+0.10,-0.17,-0.98,51.5381405,-0.0122258
2026-06-18T10:17:16.047185,+0.20,-0.20,-0.73,51.5381405,-0.0122258
2026-06-18T10:17:16.108104,+0.17,-0.12,-0.93,51.5381405,-0.0122258
2026-06-18T10:17:16.167511,+0.14,-0.10,-1.01,51.5381405,-0.0122258
2026-06-18T10:17:16.229129,+0.25,-0.29,-0.91,51.5381405,-0.0122258
2026-06-18T10:17:16.319716,+0.01,-0.09,-1.12,51.5381405,-0.0122258
2026-06-18T10:17:16.380255,+0.09,-0.22,-0.99,51.5381405,-0.0122258
2026-06-18T10:17:16.441401,+0.17,-0.19,-0.80,51.5381405,-0.0122258
2026-06-18T10:17:16.500207,+0.15,-0.07,-0.98,51.5381405,-0.0122258
2026-06-18T10:17:16.560249,+0.14,-0.22,-1.00,51.5381405,-0.0122258
2026-06-18T10:17:16.651537,+0.17,-0.18,-1.19,51.5381405,-0.0122258
2026-06-18T10:17:16.740219,+0.07,-0.17,-1.00,51.5381405,-0.0122258
2026-06-18T10:17:16.766693,+0.01,-0.10,-0.97,51.5381405,-0.0122258
2026-06-18T10:17:16.827176,+0.16,-0.30,-0.88,51.5381291,-0.0122851
2026-06-18T10:17:16.918174,+0.19,-0.27,-1.01,51.5381291,-0.0122851
2026-06-18T10:17:16.980790,+0.06,-0.10,-1.09,51.5381291,-0.0122851
2026-06-18T10:17:17.040859,+0.14,-0.23,-1.04,51.5381291,-0.0122851
2026-06-18T10:17:17.101539,+0.13,-0.15,-0.76,51.5381291,-0.0122851
2026-06-18T10:17:17.161602,+0.13,-0.03,-1.02,51.5381291,-0.0122851
2026-06-18T10:17:17.251558,+0.24,-0.19,-0.99,51.5381291,-0.0122851
2026-06-18T10:17:17.310420,+0.21,-0.23,-0.98,51.5381291,-0.0122851
2026-06-18T10:17:17.371526,+0.14,-0.06,-0.81,51.5381291,-0.0122851
2026-06-18T10:17:17.461393,+0.16,-0.22,-0.89,51.5381291,-0.0122851
2026-06-18T10:17:17.486883,+0.12,-0.06,-1.00,51.5381291,-0.0122851
2026-06-18T10:17:17.582034,+0.11,-0.12,-1.08,51.5381291,-0.0122851
2026-06-18T10:17:17.639050,+0.16,-0.24,-0.89,51.5381291,-0.0122851
2026-06-18T10:17:17.697134,+0.11,-0.15,-1.00,51.5381291,-0.0122851
2026-06-18T10:17:17.761565,+0.16,-0.18,-0.85,51.5381291,-0.0122851
2026-06-18T10:17:17.817793,+0.20,-0.34,-0.99,51.5381215,-0.0123455
2026-06-18T10:17:17.911325,+0.13,-0.21,-0.97,51.5381215,-0.0123455
2026-06-18T10:17:17.968277,+0.08,-0.04,-1.00,51.5381215,-0.0123455
2026-06-18T10:17:18.029354,+0.01,-0.02,-0.94,51.5381215,-0.0123455
2026-06-18T10:17:18.088655,+0.19,-0.17,-0.99,51.5381215,-0.0123455
2026-06-18T10:17:18.151500,+0.17,-0.11,-0.96,51.5381215,-0.0123455
2026-06-18T10:17:18.242222,+0.23,-0.12,-0.97,51.5381215,-0.0123455
2026-06-18T10:17:18.302081,+0.20,-0.22,-1.00,51.5381215,-0.0123455
2026-06-18T10:17:18.360244,+0.16,-0.16,-0.98,51.5381215,-0.0123455
2026-06-18T10:17:18.421753,+0.10,-0.17,-1.00,51.5381215,-0.0123455
2026-06-18T10:17:18.479981,+0.08,-0.10,-1.10,51.5381215,-0.0123455
2026-06-18T10:17:18.569588,+0.18,-0.14,-0.96,51.5381215,-0.0123455
2026-06-18T10:17:18.629368,+0.13,-0.16,-1.09,51.5381215,-0.0123455
2026-06-18T10:17:18.690681,+0.17,-0.18,-0.95,51.5381215,-0.0123455
2026-06-18T10:17:18.748552,+0.08,-0.16,-0.99,51.5381215,-0.0123455
2026-06-18T10:17:18.839558,+0.18,-0.29,-0.71,51.5381135,-0.0124044
2026-06-18T10:17:18.901871,+0.18,-0.29,-0.74,51.5381135,-0.0124044
2026-06-18T10:17:18.962021,+0.25,-0.17,-1.10,51.5381135,-0.0124044
2026-06-18T10:17:19.019312,+0.05,-0.06,-1.09,51.5381135,-0.0124044
2026-06-18T10:17:19.111321,+0.14,-0.13,-0.96,51.5381135,-0.0124044
2026-06-18T10:17:19.169119,+0.11,-0.13,-0.83,51.5381135,-0.0124044
2026-06-18T10:17:19.230160,+0.13,-0.19,-1.04,51.5381135,-0.0124044
2026-06-18T10:17:19.291989,+0.15,-0.11,-1.06,51.5381135,-0.0124044
2026-06-18T10:17:19.348569,+0.21,-0.15,-1.06,51.5381135,-0.0124044
2026-06-18T10:17:19.440426,+0.11,-0.10,-1.00,51.5381135,-0.0124044
2026-06-18T10:17:19.498515,+0.14,-0.20,-0.69,51.5381135,-0.0124044
2026-06-18T10:17:19.560849,+0.24,-0.24,-1.11,51.5381135,-0.0124044
2026-06-18T10:17:19.618223,+0.08,-0.10,-1.02,51.5381135,-0.0124044
2026-06-18T10:17:19.680728,+0.16,-0.26,-0.93,51.5381135,-0.0124044
2026-06-18T10:17:19.782863,+0.09,-0.14,-0.98,51.5381135,-0.0124044
2026-06-18T10:17:19.826550,+0.12,-0.25,-0.90,51.5381051,-0.0124607
2026-06-18T10:17:19.890791,+0.10,-0.13,-1.00,51.5381051,-0.0124607
2026-06-18T10:17:19.949328,+0.17,-0.19,-0.85,51.5381051,-0.0124607
2026-06-18T10:17:20.007677,+0.07,-0.06,-0.91,51.5381051,-0.0124607
2026-06-18T10:17:20.101112,+0.11,-0.04,-1.01,51.5381051,-0.0124607
2026-06-18T10:17:20.161884,+0.23,-0.30,-0.99,51.5381051,-0.0124607
2026-06-18T10:17:20.220797,+0.11,-0.06,-1.02,51.5381051,-0.0124607
2026-06-18T10:17:20.281640,+0.16,-0.22,-0.99,51.5381051,-0.0124607
2026-06-18T10:17:20.341123,+0.14,-0.12,-1.04,51.5381051,-0.0124607
2026-06-18T10:17:20.429085,+0.16,-0.19,-1.03,51.5381051,-0.0124607
2026-06-18T10:17:20.517964,+0.16,-0.25,-0.99,51.5381051,-0.0124607
2026-06-18T10:17:20.548690,+0.07,-0.01,-0.96,51.5381051,-0.0124607
2026-06-18T10:17:20.609494,+0.11,-0.08,-1.03,51.5381051,-0.0124607
2026-06-18T10:17:20.670734,+0.17,-0.24,-0.82,51.5381051,-0.0124607
2026-06-18T10:17:20.761413,+0.13,-0.23,-1.05,51.5381051,-0.0124607
2026-06-18T10:17:20.818210,+0.13,-0.34,-0.78,51.5380917,-0.0125156
2026-06-18T10:17:20.878445,+0.21,-0.27,-1.08,51.5380917,-0.0125156
2026-06-18T10:17:20.938118,+0.04,-0.04,-0.91,51.5380917,-0.0125156
2026-06-18T10:17:21.030260,+0.16,-0.15,-0.93,51.5380917,-0.0125156
2026-06-18T10:17:21.088562,+0.10,-0.12,-0.83,51.5380917,-0.0125156
2026-06-18T10:17:21.151742,+0.18,-0.10,-1.15,51.5380917,-0.0125156
2026-06-18T10:17:21.210476,+0.27,-0.25,-0.76,51.5380917,-0.0125156
2026-06-18T10:17:21.269994,+0.07,-0.22,-1.03,51.5380917,-0.0125156
2026-06-18T10:17:21.361865,+0.10,-0.06,-1.07,51.5380917,-0.0125156
2026-06-18T10:17:21.420755,+0.14,-0.19,-0.95,51.5380917,-0.0125156
2026-06-18T10:17:21.479164,+0.21,-0.14,-0.87,51.5380917,-0.0125156
2026-06-18T10:17:21.538132,+0.13,-0.13,-1.07,51.5380917,-0.0125156
2026-06-18T10:17:21.600302,+0.18,-0.07,-0.98,51.5380917,-0.0125156
2026-06-18T10:17:21.688197,+0.18,-0.22,-0.79,51.5380917,-0.0125156
2026-06-18T10:17:21.749766,+0.17,-0.20,-1.05,51.5380917,-0.0125156
2026-06-18T10:17:21.809705,+0.16,-0.28,-0.86,51.5380917,-0.0125156
2026-06-18T10:17:21.869343,+0.12,-0.18,-0.92,51.5380759,-0.0125707
2026-06-18T10:17:21.927445,+0.16,-0.23,-0.89,51.5380759,-0.0125707
2026-06-18T10:17:22.018067,+0.19,-0.22,-0.96,51.5380759,-0.0125707
2026-06-18T10:17:22.078939,+0.04,+0.02,-1.05,51.5380759,-0.0125707
2026-06-18T10:17:22.140848,-0.00,-0.01,-1.09,51.5380759,-0.0125707
2026-06-18T10:17:22.232324,+0.25,-0.32,-0.88,51.5380759,-0.0125707
2026-06-18T10:17:22.257773,+0.16,-0.12,-1.03,51.5380759,-0.0125707
2026-06-18T10:17:22.354738,+0.11,-0.13,-1.09,51.5380759,-0.0125707
2026-06-18T10:17:22.406915,+0.25,-0.30,-0.84,51.5380759,-0.0125707
2026-06-18T10:17:22.469420,+0.15,-0.07,-0.89,51.5380759,-0.0125707
2026-06-18T10:17:22.562239,+0.23,-0.24,-0.92,51.5380759,-0.0125707
2026-06-18T10:17:22.586275,+0.14,-0.10,-0.99,51.5380759,-0.0125707
2026-06-18T10:17:22.681080,+0.20,-0.12,-0.87,51.5380759,-0.0125707
2026-06-18T10:17:22.741220,+0.18,-0.18,-1.07,51.5380759,-0.0125707
2026-06-18T10:17:22.797532,+0.11,-0.19,-0.96,51.5380759,-0.0125707
2026-06-18T10:17:22.860445,+0.09,-0.15,-0.93,51.5380621,-0.0126255
2026-06-18T10:17:22.951573,+0.16,-0.24,-0.90,51.5380621,-0.0126255
2026-06-18T10:17:23.011394,+0.17,-0.28,-1.03,51.5380621,-0.0126255
2026-06-18T10:17:23.069116,+0.07,-0.08,-0.95,51.5380621,-0.0126255
2026-06-18T10:17:23.129573,+0.04,-0.06,-1.13,51.5380621,-0.0126255
2026-06-18T10:17:23.189392,+0.14,-0.14,-0.96,51.5380621,-0.0126255
2026-06-18T10:17:23.281643,+0.27,-0.21,-0.99,51.5380621,-0.0126255
2026-06-18T10:17:23.337725,+0.10,-0.08,-0.99,51.5380621,-0.0126255
2026-06-18T10:17:23.400270,+0.21,-0.11,-0.95,51.5380621,-0.0126255
2026-06-18T10:17:23.460402,+0.23,-0.28,-0.87,51.5380621,-0.0126255
2026-06-18T10:17:23.521353,+0.12,-0.15,-1.02,51.5380621,-0.0126255
2026-06-18T10:17:23.608832,+0.12,-0.18,-0.92,51.5380621,-0.0126255
2026-06-18T10:17:23.667776,+0.06,-0.05,-1.11,51.5380621,-0.0126255
2026-06-18T10:17:23.726238,+0.09,-0.14,-1.12,51.5380621,-0.0126255
2026-06-18T10:17:23.786312,+0.24,-0.31,-0.80,51.5380621,-0.0126255
2026-06-18T10:17:23.847954,+0.10,-0.18,-0.94,51.538052,-0.012681
2026-06-18T10:17:23.939654,+0.15,-0.23,-0.91,51.538052,-0.012681
2026-06-18T10:17:24.002273,+0.21,-0.29,-1.03,51.538052,-0.012681
2026-06-18T10:17:24.059142,+0.10,-0.10,-1.04,51.538052,-0.012681
2026-06-18T10:17:24.127025,-0.05,+0.01,-1.13,51.538052,-0.012681
2026-06-18T10:17:24.183379,+0.03,-0.08,-0.86,51.538052,-0.012681
2026-06-18T10:17:24.301289,+0.30,-0.39,-0.92,51.538052,-0.012681
2026-06-18T10:17:24.329782,+0.17,-0.20,-1.05,51.538052,-0.012681
2026-06-18T10:17:24.420898,+0.26,-0.23,-0.81,51.538052,-0.012681
2026-06-18T10:17:24.446321,+0.42,-0.52,-0.60,51.538052,-0.012681
2026-06-18T10:17:24.537332,+0.08,-0.04,-1.18,51.538052,-0.012681
2026-06-18T10:17:24.597762,+0.17,-0.19,-0.89,51.538052,-0.012681
2026-06-18T10:17:24.657593,+0.14,-0.09,-0.77,51.538052,-0.012681
2026-06-18T10:17:24.722972,-0.08,+0.14,-1.10,51.538052,-0.012681
2026-06-18T10:17:24.778684,+0.22,-0.33,-0.88,51.538052,-0.012681
2026-06-18T10:17:24.868381,+0.11,-0.24,-0.84,51.538045,-0.0127386
2026-06-18T10:17:24.928569,+0.15,-0.16,-0.97,51.538045,-0.0127386
2026-06-18T10:17:24.988877,+0.06,-0.17,-0.95,51.538045,-0.0127386
2026-06-18T10:17:25.050100,+0.18,-0.18,-1.14,51.538045,-0.0127386
2026-06-18T10:17:25.139625,+0.12,-0.14,-1.01,51.538045,-0.0127386
2026-06-18T10:17:25.199852,+0.03,-0.13,-1.12,51.538045,-0.0127386
2026-06-18T10:17:25.259470,+0.06,-0.11,-0.91,51.538045,-0.0127386
2026-06-18T10:17:25.321174,+0.20,-0.25,-1.03,51.538045,-0.0127386
2026-06-18T10:17:25.381687,+0.15,-0.16,-1.02,51.538045,-0.0127386
2026-06-18T10:17:25.471272,+0.17,-0.16,-0.93,51.538045,-0.0127386
2026-06-18T10:17:25.528750,+0.19,-0.18,-0.91,51.538045,-0.0127386
2026-06-18T10:17:25.592812,+0.19,-0.17,-0.86,51.538045,-0.0127386
2026-06-18T10:17:25.651235,+0.16,-0.21,-0.88,51.538045,-0.0127386
2026-06-18T10:17:25.713306,+0.16,-0.04,-1.06,51.538045,-0.0127386
2026-06-18T10:17:25.796282,+0.13,-0.19,-0.78,51.5380311,-0.012794
2026-06-18T10:17:25.861373,+0.12,-0.18,-1.02,51.5380311,-0.012794
2026-06-18T10:17:25.921491,+0.15,-0.14,-0.85,51.5380311,-0.012794
2026-06-18T10:17:25.978830,+0.09,-0.16,-1.14,51.5380311,-0.012794
2026-06-18T10:17:26.040055,+0.10,-0.20,-1.05,51.5380311,-0.012794
2026-06-18T10:17:26.132148,+0.15,-0.25,-1.12,51.5380311,-0.012794
2026-06-18T10:17:26.189324,+0.07,-0.13,-1.00,51.5380311,-0.012794
2026-06-18T10:17:26.250369,+0.04,-0.15,-0.95,51.5380311,-0.012794
2026-06-18T10:17:26.310912,+0.11,-0.19,-1.09,51.5380311,-0.012794
2026-06-18T10:17:26.369808,+0.20,-0.21,-0.94,51.5380311,-0.012794
2026-06-18T10:17:26.461038,+0.18,-0.12,-0.69,51.5380311,-0.012794
2026-06-18T10:17:26.520973,+0.17,-0.09,-1.01,51.5380311,-0.012794
2026-06-18T10:17:26.582979,+0.13,-0.18,-0.92,51.5380311,-0.012794
2026-06-18T10:17:26.637154,+0.22,-0.15,-1.11,51.5380311,-0.012794
2026-06-18T10:17:26.701412,+0.02,-0.02,-0.95,51.5380311,-0.012794
2026-06-18T10:17:26.816869,+0.20,-0.11,-0.85,51.5380161,-0.0128472
2026-06-18T10:17:26.848185,+0.08,-0.13,-1.01,51.5380161,-0.0128472
2026-06-18T10:17:26.910863,+0.10,-0.16,-1.15,51.5380161,-0.0128472
2026-06-18T10:17:26.968558,+0.09,-0.20,-0.92,51.5380161,-0.0128472
2026-06-18T10:17:27.060905,+0.40,-0.54,-0.58,51.5380161,-0.0128472
2026-06-18T10:17:27.119049,+0.15,-0.25,-0.88,51.5380161,-0.0128472
2026-06-18T10:17:27.181069,+0.19,-0.26,-1.13,51.5380161,-0.0128472
2026-06-18T10:17:27.241906,+0.15,-0.19,-0.92,51.5380161,-0.0128472
2026-06-18T10:17:27.331215,+0.07,-0.16,-1.11,51.5380161,-0.0128472
2026-06-18T10:17:27.394138,+0.13,-0.09,-0.96,51.5380161,-0.0128472
2026-06-18T10:17:27.449795,+0.19,-0.21,-1.05,51.5380161,-0.0128472
2026-06-18T10:17:27.510695,+0.17,-0.11,-1.00,51.5380161,-0.0128472
2026-06-18T10:17:27.571621,+0.14,-0.16,-0.87,51.5380161,-0.0128472
2026-06-18T10:17:27.629047,+0.16,-0.23,-0.98,51.5380161,-0.0128472
2026-06-18T10:17:27.721536,+0.13,-0.19,-0.86,51.5380161,-0.0128472
2026-06-18T10:17:27.781032,+0.05,-0.01,-1.01,51.5380161,-0.0128472
2026-06-18T10:17:27.838221,+0.15,-0.11,-1.10,51.5379954,-0.0128948
2026-06-18T10:17:27.900015,+0.16,-0.26,-0.86,51.5379954,-0.0128948
2026-06-18T10:17:27.958218,+0.15,-0.22,-0.80,51.5379954,-0.0128948
2026-06-18T10:17:28.050149,+0.08,-0.11,-1.21,51.5379954,-0.0128948
2026-06-18T10:17:28.108922,+0.02,-0.11,-0.93,51.5379954,-0.0128948
2026-06-18T10:17:28.171202,+0.20,-0.17,-0.90,51.5379954,-0.0128948
2026-06-18T10:17:28.230624,+0.17,-0.18,-1.01,51.5379954,-0.0128948
2026-06-18T10:17:28.290896,+0.14,-0.19,-0.97,51.5379954,-0.0128948
2026-06-18T10:17:28.381211,+0.03,-0.03,-0.94,51.5379954,-0.0128948
2026-06-18T10:17:28.438267,+0.15,-0.12,-0.88,51.5379954,-0.0128948
2026-06-18T10:17:28.500323,+0.17,-0.07,-1.04,51.5379954,-0.0128948
2026-06-18T10:17:28.559634,+0.04,+0.03,-1.15,51.5379954,-0.0128948
2026-06-18T10:17:28.622094,+0.15,-0.34,-0.86,51.5379954,-0.0128948
2026-06-18T10:17:28.709618,+0.21,-0.19,-0.79,51.5379954,-0.0128948
2026-06-18T10:17:28.768072,+0.12,-0.10,-0.80,51.5379954,-0.0128948
2026-06-18T10:17:28.828115,+0.12,-0.21,-0.74,51.537969,-0.0129367
2026-06-18T10:17:28.887483,+0.08,+0.07,-0.99,51.537969,-0.0129367
2026-06-18T10:17:28.952416,+0.03,-0.17,-0.97,51.537969,-0.0129367
2026-06-18T10:17:29.069979,+0.09,-0.11,-0.94,51.537969,-0.0129367
2026-06-18T10:17:29.098652,+0.11,-0.20,-0.91,51.537969,-0.0129367
2026-06-18T10:17:29.161848,+0.05,-0.16,-1.16,51.537969,-0.0129367
2026-06-18T10:17:29.219962,+0.12,-0.15,-0.83,51.537969,-0.0129367
2026-06-18T10:17:29.310559,+0.28,-0.25,-0.87,51.537969,-0.0129367
2026-06-18T10:17:29.367850,+0.09,-0.03,-1.07,51.537969,-0.0129367
2026-06-18T10:17:29.430754,+0.10,-0.06,-1.05,51.537969,-0.0129367
2026-06-18T10:17:29.491690,-0.10,-0.04,-1.06,51.537969,-0.0129367
2026-06-18T10:17:29.551827,+0.14,-0.07,-0.95,51.537969,-0.0129367
2026-06-18T10:17:29.640378,+0.21,-0.21,-0.70,51.537969,-0.0129367
2026-06-18T10:17:29.701444,+0.12,-0.09,-1.06,51.537969,-0.0129367
2026-06-18T10:17:29.762044,+0.18,-0.26,-0.89,51.537969,-0.0129367
2026-06-18T10:17:29.818530,+0.11,-0.09,-0.99,51.5379421,-0.0129749
2026-06-18T10:17:29.878718,+0.06,-0.05,-0.98,51.5379421,-0.0129749
2026-06-18T10:17:29.968953,+0.12,-0.11,-0.93,51.5379421,-0.0129749
2026-06-18T10:17:30.029487,+0.09,-0.11,-0.93,51.5379421,-0.0129749
2026-06-18T10:17:30.090337,+0.18,-0.24,-1.02,51.5379421,-0.0129749
2026-06-18T10:17:30.148836,+0.13,-0.12,-0.99,51.5379421,-0.0129749
2026-06-18T10:17:30.211550,+0.03,-0.05,-0.96,51.5379421,-0.0129749
2026-06-18T10:17:30.300980,+0.11,-0.14,-0.97,51.5379421,-0.0129749
2026-06-18T10:17:30.358096,+0.10,-0.15,-1.08,51.5379421,-0.0129749
2026-06-18T10:17:30.419575,+0.12,-0.16,-1.05,51.5379421,-0.0129749
2026-06-18T10:17:30.480837,+0.12,-0.15,-0.96,51.5379421,-0.0129749
2026-06-18T10:17:30.542808,+0.18,-0.25,-0.85,51.5379421,-0.0129749
2026-06-18T10:17:30.630936,+0.09,-0.13,-1.01,51.5379421,-0.0129749
2026-06-18T10:17:30.691651,+0.03,-0.00,-1.03,51.5379421,-0.0129749
2026-06-18T10:17:30.749566,+0.26,-0.25,-0.78,51.5379421,-0.0129749
2026-06-18T10:17:30.805951,+0.17,-0.18,-1.01,51.5379141,-0.013012
2026-06-18T10:17:30.870131,+0.09,-0.11,-1.14,51.5379141,-0.013012
2026-06-18T10:17:30.958850,+0.06,-0.11,-1.01,51.5379141,-0.013012
2026-06-18T10:17:31.051164,+0.20,-0.21,-1.00,51.5379141,-0.013012
2026-06-18T10:17:31.076826,+0.23,-0.26,-0.91,51.5379141,-0.013012
2026-06-18T10:17:31.170691,+0.09,-0.09,-1.05,51.5379141,-0.013012
2026-06-18T10:17:31.231274,+0.03,-0.07,-0.97,51.5379141,-0.013012
2026-06-18T10:17:31.289799,+0.12,-0.15,-0.84,51.5379141,-0.013012
2026-06-18T10:17:31.347348,+0.14,-0.18,-1.01,51.5379141,-0.013012
2026-06-18T10:17:31.410271,+0.12,-0.07,-0.94,51.5379141,-0.013012
2026-06-18T10:17:31.502293,+0.07,-0.05,-0.97,51.5379141,-0.013012
2026-06-18T10:17:31.558445,+0.17,-0.11,-0.91,51.5379141,-0.013012
2026-06-18T10:17:31.618556,+0.18,-0.17,-0.73,51.5379141,-0.013012
2026-06-18T10:17:31.681271,+0.16,-0.16,-1.05,51.5379141,-0.013012
2026-06-18T10:17:31.739096,+0.07,-0.10,-0.97,51.5379141,-0.013012
2026-06-18T10:17:31.828301,+0.02,-0.11,-0.93,51.5378898,-0.0130478
2026-06-18T10:17:31.890535,+0.07,-0.07,-1.03,51.5378898,-0.0130478
2026-06-18T10:17:31.948804,+0.04,-0.05,-1.02,51.5378898,-0.0130478
2026-06-18T10:17:32.010462,+0.07,-0.07,-0.96,51.5378898,-0.0130478
2026-06-18T10:17:32.069485,+0.12,-0.11,-0.96,51.5378898,-0.0130478
2026-06-18T10:17:32.162285,+0.12,-0.15,-1.02,51.5378898,-0.0130478
2026-06-18T10:17:32.220882,+0.11,-0.09,-1.02,51.5378898,-0.0130478
2026-06-18T10:17:32.281993,+0.07,-0.06,-0.90,51.5378898,-0.0130478
2026-06-18T10:17:32.340742,+0.02,-0.09,-0.97,51.5378898,-0.0130478
2026-06-18T10:17:32.400582,+0.09,-0.08,-0.90,51.5378898,-0.0130478
2026-06-18T10:17:32.488264,+0.04,-0.08,-0.92,51.5378898,-0.0130478
2026-06-18T10:17:32.551175,+0.04,-0.04,-1.03,51.5378898,-0.0130478
2026-06-18T10:17:32.608637,+0.12,-0.12,-0.91,51.5378898,-0.0130478
2026-06-18T10:17:32.669613,+0.14,-0.15,-0.95,51.5378898,-0.0130478
2026-06-18T10:17:32.732680,+0.09,-0.08,-1.07,51.5378898,-0.0130478
2026-06-18T10:17:32.819011,+0.07,-0.02,-1.02,51.5378709,-0.0130795
2026-06-18T10:17:32.881602,+0.03,-0.08,-0.97,51.5378709,-0.0130795
2026-06-18T10:17:32.939315,+0.13,-0.12,-0.93,51.5378709,-0.0130795
2026-06-18T10:17:33.000440,+0.04,-0.06,-1.09,51.5378709,-0.0130795
2026-06-18T10:17:33.060917,-0.01,-0.02,-1.06,51.5378709,-0.0130795
2026-06-18T10:17:33.152166,+0.04,-0.07,-0.90,51.5378709,-0.0130795
2026-06-18T10:17:33.270670,+0.11,-0.11,-1.04,51.5378709,-0.0130795
2026-06-18T10:17:33.272475,+0.10,-0.06,-1.09,51.5378709,-0.0130795
2026-06-18T10:17:33.327454,-0.10,-0.14,-0.94,51.5378709,-0.0130795
2026-06-18T10:17:33.421277,+0.08,-0.04,-0.99,51.5378709,-0.0130795
2026-06-18T10:17:33.480698,+0.06,-0.07,-1.04,51.5378709,-0.0130795
2026-06-18T10:17:33.540529,+0.03,-0.11,-1.05,51.5378709,-0.0130795
2026-06-18T10:17:33.602376,-0.05,+0.19,-1.01,51.5378709,-0.0130795
2026-06-18T10:17:33.662714,+0.04,-0.08,-0.98,51.5378709,-0.0130795
2026-06-18T10:17:33.750860,-0.01,-0.05,-1.00,51.5378709,-0.0130795
2026-06-18T10:17:33.811289,+0.12,-0.07,-1.00,51.5378599,-0.0131013
2026-06-18T10:17:33.870760,+0.24,+0.03,-1.04,51.5378599,-0.0131013
2026-06-18T10:17:33.928655,-0.00,-0.09,-0.99,51.5378599,-0.0131013
2026-06-18T10:17:33.991271,+0.19,+0.19,-1.02,51.5378599,-0.0131013
2026-06-18T10:17:34.081869,+0.06,+0.11,-1.04,51.5378599,-0.0131013
2026-06-18T10:17:34.140541,+0.06,+0.15,-1.04,51.5378599,-0.0131013
2026-06-18T10:17:34.200315,+0.22,+0.19,-1.05,51.5378599,-0.0131013
2026-06-18T10:17:34.260928,+0.25,+0.14,-1.05,51.5378599,-0.0131013
2026-06-18T10:17:34.321270,+0.19,-0.01,-0.98,51.5378599,-0.0131013
2026-06-18T10:17:34.411144,+0.26,-0.07,-0.93,51.5378599,-0.0131013
2026-06-18T10:17:34.469675,+0.10,+0.05,-0.85,51.5378599,-0.0131013
2026-06-18T10:17:34.528852,+0.14,+0.21,-0.89,51.5378599,-0.0131013
2026-06-18T10:17:34.591753,+0.18,-0.00,-1.00,51.5378599,-0.0131013
2026-06-18T10:17:34.648812,+0.26,-0.19,-0.98,51.5378599,-0.0131013
2026-06-18T10:17:34.741951,+0.13,-0.21,-0.93,51.5378599,-0.0131013
2026-06-18T10:17:34.796088,+0.16,-0.13,-0.96,51.5378599,-0.0131013
2026-06-18T10:17:34.857334,+0.17,-0.09,-1.00,51.5378547,-0.0131088
2026-06-18T10:17:34.917850,+0.21,-0.10,-1.00,51.5378547,-0.0131088
2026-06-18T10:17:34.981035,+0.20,-0.05,-0.97,51.5378547,-0.0131088
2026-06-18T10:17:35.072230,+0.18,-0.07,-1.00,51.5378547,-0.0131088
2026-06-18T10:17:35.127805,+0.20,-0.08,-0.98,51.5378547,-0.0131088
2026-06-18T10:17:35.190951,+0.27,-0.06,-0.97,51.5378547,-0.0131088
2026-06-18T10:17:35.281506,+0.29,-0.04,-0.99,51.5378547,-0.0131088
2026-06-18T10:17:35.339555,+0.24,-0.04,-0.98,51.5378547,-0.0131088
2026-06-18T10:17:35.401059,+0.24,-0.02,-0.97,51.5378547,-0.0131088
2026-06-18T10:17:35.461079,+0.23,-0.08,-0.98,51.5378547,-0.0131088
2026-06-18T10:17:35.521055,+0.27,-0.05,-0.98,51.5378547,-0.0131088
2026-06-18T10:17:35.577676,+0.28,+0.01,-0.97,51.5378547,-0.0131088
2026-06-18T10:17:35.671667,+0.28,-0.03,-0.97,51.5378547,-0.0131088
2026-06-18T10:17:35.727407,+0.24,-0.10,-0.97,51.5378547,-0.0131088
2026-06-18T10:17:35.787248,+0.23,-0.11,-0.97,51.5378547,-0.0131088
2026-06-18T10:17:35.846750,+0.21,-0.08,-0.98,51.5378446,-0.0131196
2026-06-18T10:17:35.907223,+0.24,-0.06,-0.98,51.5378446,-0.0131196
2026-06-18T10:17:35.998856,+0.25,-0.07,-0.98,51.5378446,-0.0131196
2026-06-18T10:17:36.057190,+0.26,-0.06,-0.97,51.5378446,-0.0131196
2026-06-18T10:17:36.118556,+0.24,-0.05,-0.99,51.5378446,-0.0131196
2026-06-18T10:17:36.177918,+0.22,-0.07,-0.98,51.5378446,-0.0131196
2026-06-18T10:17:36.238147,+0.24,-0.08,-0.97,51.5378446,-0.0131196
2026-06-18T10:17:36.327739,+0.28,-0.07,-0.97,51.5378446,-0.0131196
2026-06-18T10:17:36.387674,+0.25,-0.07,-0.97,51.5378446,-0.0131196
2026-06-18T10:17:36.449078,+0.27,-0.07,-0.97,51.5378446,-0.0131196
2026-06-18T10:17:36.508162,+0.25,-0.10,-0.97,51.5378446,-0.0131196
2026-06-18T10:17:36.567487,+0.23,-0.11,-0.96,51.5378446,-0.0131196
2026-06-18T10:17:36.657900,+0.22,-0.10,-0.98,51.5378446,-0.0131196
2026-06-18T10:17:36.718801,+0.23,-0.08,-0.97,51.5378446,-0.0131196
2026-06-18T10:17:36.777841,+0.22,-0.08,-0.97,51.5378446,-0.0131196
2026-06-18T10:17:36.838065,+0.24,-0.05,-0.98,51.5378381,-0.0131214
2026-06-18T10:17:36.897101,+0.28,-0.02,-0.98,51.5378381,-0.0131214
2026-06-18T10:17:36.987503,+0.28,-0.05,-0.97,51.5378381,-0.0131214
2026-06-18T10:17:37.046835,+0.26,-0.05,-0.98,51.5378381,-0.0131214
2026-06-18T10:17:37.107057,+0.25,-0.04,-0.98,51.5378381,-0.0131214
2026-06-18T10:17:37.167172,+0.22,-0.07,-0.97,51.5378381,-0.0131214
2026-06-18T10:17:37.257567,+0.24,-0.09,-0.97,51.5378381,-0.0131214
2026-06-18T10:17:37.317013,+0.26,-0.09,-0.98,51.5378381,-0.0131214
2026-06-18T10:17:37.379134,+0.27,-0.08,-0.97,51.5378381,-0.0131214
2026-06-18T10:17:37.437937,+0.26,-0.05,-0.97,51.5378381,-0.0131214
2026-06-18T10:17:37.526623,+0.24,-0.04,-0.98,51.5378381,-0.0131214
2026-06-18T10:17:37.587622,+0.21,-0.08,-0.98,51.5378381,-0.0131214
2026-06-18T10:17:37.648126,+0.25,-0.08,-0.97,51.5378381,-0.0131214
2026-06-18T10:17:37.706742,+0.25,-0.07,-0.97,51.5378381,-0.0131214
2026-06-18T10:17:37.767592,+0.25,-0.06,-0.98,51.5378381,-0.0131214
2026-06-18T10:17:37.857377,+0.25,-0.05,-0.98,51.537825,-0.0131187
2026-06-18T10:17:37.915788,+0.25,-0.05,-0.98,51.537825,-0.0131187
2026-06-18T10:17:37.978605,+0.22,-0.11,-0.97,51.537825,-0.0131187
2026-06-18T10:17:38.036895,+0.24,-0.09,-0.97,51.537825,-0.0131187
2026-06-18T10:17:38.128621,+0.23,-0.11,-0.97,51.537825,-0.0131187
2026-06-18T10:17:38.187850,+0.24,-0.10,-0.98,51.537825,-0.0131187
2026-06-18T10:17:38.248296,+0.23,-0.10,-0.97,51.537825,-0.0131187
2026-06-18T10:17:38.307544,+0.21,-0.11,-0.97,51.537825,-0.0131187
2026-06-18T10:17:38.366801,+0.23,-0.10,-0.98,51.537825,-0.0131187
2026-06-18T10:17:38.427750,+0.22,-0.11,-0.97,51.537825,-0.0131187
2026-06-18T10:17:38.517800,+0.21,-0.11,-0.97,51.537825,-0.0131187
2026-06-18T10:17:38.577626,+0.22,-0.11,-0.97,51.537825,-0.0131187
2026-06-18T10:17:38.640947,+0.21,-0.11,-0.97,51.537825,-0.0131187
2026-06-18T10:17:38.699169,+0.22,-0.10,-0.98,51.537825,-0.0131187