Timestamp,Acc_X,Acc_Y,Acc_Z,Latitude,Longitude
2026-06-18T10:51:41.560274,+0.14,-0.16,-0.98,51.5381286,-0.0115329
2026-06-18T10:51:41.651083,+0.13,-0.15,-0.98,51.5381286,-0.0115329
2026-06-18T10:51:41.711802,+0.14,-0.14,-0.98,51.5381286,-0.0115329
2026-06-18T10:51:41.767616,+0.12,-0.15,-0.98,51.5381286,-0.0115329
2026-06-18T10:51:41.833811,+0.14,-0.15,-0.98,51.5381253,-0.0115446
2026-06-18T10:51:41.890291,+0.16,-0.15,-0.98,51.5381253,-0.0115446
2026-06-18T10:51:41.981609,+0.16,-0.12,-0.98,51.5381253,-0.0115446
2026-06-18T10:51:42.039130,+0.04,-0.11,-1.01,51.5381253,-0.0115446
2026-06-18T10:51:42.107721,+0.13,-0.18,-0.96,51.5381253,-0.0115446
2026-06-18T10:51:42.161530,+0.22,-0.25,-0.94,51.5381253,-0.0115446
2026-06-18T10:51:42.247589,+0.08,-0.11,-1.04,51.5381253,-0.0115446
2026-06-18T10:51:42.310558,+0.13,-0.06,-0.98,51.5381253,-0.0115446
2026-06-18T10:51:42.370561,+0.14,-0.09,-1.00,51.5381253,-0.0115446
2026-06-18T10:51:42.430704,+0.12,-0.14,-0.99,51.5381253,-0.0115446
2026-06-18T10:51:42.488849,+0.18,-0.12,-0.98,51.5381253,-0.0115446
2026-06-18T10:51:42.580350,+0.16,-0.14,-0.97,51.5381253,-0.0115446
2026-06-18T10:51:42.640047,+0.14,-0.17,-0.97,51.5381253,-0.0115446
2026-06-18T10:51:42.698932,+0.11,-0.16,-0.98,51.5381253,-0.0115446
2026-06-18T10:51:42.762386,+0.09,-0.17,-0.98,51.5381253,-0.0115446
2026-06-18T10:51:42.848116,+0.08,-0.18,-0.97,51.5381269,-0.0115529
2026-06-18T10:51:42.909679,+0.13,-0.21,-0.98,51.5381269,-0.0115529
2026-06-18T10:51:42.968245,+0.13,-0.20,-0.96,51.5381269,-0.0115529
2026-06-18T10:51:43.028732,+0.12,-0.22,-0.96,51.5381269,-0.0115529
2026-06-18T10:51:43.088712,+0.11,-0.19,-0.96,51.5381269,-0.0115529
2026-06-18T10:51:43.179078,+0.11,-0.17,-0.95,51.5381269,-0.0115529
2026-06-18T10:51:43.240739,+0.05,-0.20,-0.96,51.5381269,-0.0115529
2026-06-18T10:51:43.300001,+0.08,-0.20,-0.97,51.5381269,-0.0115529
2026-06-18T10:51:43.358830,+0.11,-0.22,-0.94,51.5381269,-0.0115529
2026-06-18T10:51:43.420623,+0.09,-0.21,-0.96,51.5381269,-0.0115529
2026-06-18T10:51:43.509688,+0.11,-0.19,-0.98,51.5381269,-0.0115529
2026-06-18T10:51:43.567852,+0.14,-0.18,-0.98,51.5381269,-0.0115529
2026-06-18T10:51:43.633815,+0.11,-0.18,-0.98,51.5381269,-0.0115529
2026-06-18T10:51:43.689915,+0.11,-0.15,-0.98,51.5381269,-0.0115529
2026-06-18T10:51:43.749787,+0.11,-0.13,-0.98,51.5381269,-0.0115529
2026-06-18T10:51:43.838685,+0.08,-0.14,-0.99,51.5381261,-0.0115623
2026-06-18T10:51:43.900810,+0.05,-0.14,-0.99,51.5381261,-0.0115623
2026-06-18T10:51:43.960684,+0.05,-0.15,-0.99,51.5381261,-0.0115623
2026-06-18T10:51:44.021873,+0.11,-0.13,-0.98,51.5381261,-0.0115623
2026-06-18T10:51:44.079188,+0.13,-0.14,-0.98,51.5381261,-0.0115623
2026-06-18T10:51:44.168896,+0.10,-0.16,-0.98,51.5381261,-0.0115623
2026-06-18T10:51:44.232350,+0.07,-0.15,-0.99,51.5381261,-0.0115623
2026-06-18T10:51:44.288796,+0.07,-0.15,-0.98,51.5381261,-0.0115623
2026-06-18T10:51:44.351362,+0.05,-0.20,-0.97,51.5381261,-0.0115623
2026-06-18T10:51:44.413201,-0.09,-0.32,-1.01,51.5381261,-0.0115623
2026-06-18T10:51:44.499481,-0.00,-0.30,-0.93,51.5381261,-0.0115623
2026-06-18T10:51:44.557613,+0.19,-0.17,-0.97,51.5381261,-0.0115623
2026-06-18T10:51:44.621283,+0.28,-0.10,-0.90,51.5381261,-0.0115623
2026-06-18T10:51:44.678823,+0.28,-0.14,-0.97,51.5381261,-0.0115623
2026-06-18T10:51:44.739354,+0.33,-0.18,-0.97,51.5381261,-0.0115623
2026-06-18T10:51:44.830723,+0.41,-0.16,-0.96,51.5381261,-0.0115682
2026-06-18T10:51:44.889017,+0.32,-0.15,-0.96,51.5381261,-0.0115682
2026-06-18T10:51:44.949372,+0.28,-0.16,-0.95,51.5381261,-0.0115682
2026-06-18T10:51:45.008647,+0.29,-0.18,-0.98,51.5381261,-0.0115682
2026-06-18T10:51:45.099761,+0.35,-0.15,-0.97,51.5381261,-0.0115682
2026-06-18T10:51:45.158288,+0.42,-0.12,-0.92,51.5381261,-0.0115682
2026-06-18T10:51:45.219716,+0.33,-0.03,-0.90,51.5381261,-0.0115682
2026-06-18T10:51:45.281024,+0.43,-0.25,-0.85,51.5381261,-0.0115682
2026-06-18T10:51:45.341002,+0.25,-0.37,-0.93,51.5381261,-0.0115682
2026-06-18T10:51:45.430577,+0.28,-0.29,-0.95,51.5381261,-0.0115682
2026-06-18T10:51:45.488533,+0.71,-0.07,-0.92,51.5381261,-0.0115682
2026-06-18T10:51:45.550213,+0.19,-0.40,-0.83,51.5381261,-0.0115682
2026-06-18T10:51:45.608633,+0.23,-0.28,-0.87,51.5381261,-0.0115682
2026-06-18T10:51:45.669319,-0.08,-0.22,-0.92,51.5381261,-0.0115682
2026-06-18T10:51:45.760646,+0.05,+0.20,-1.15,51.5381261,-0.0115682
2026-06-18T10:51:45.818312,+0.12,-0.13,-0.97,51.5381173,-0.0115744
2026-06-18T10:51:45.878247,+0.08,-0.45,-0.89,51.5381173,-0.0115744
2026-06-18T10:51:45.940228,+0.10,-0.33,-0.92,51.5381173,-0.0115744
2026-06-18T10:51:45.999269,-0.10,-0.11,-1.11,51.5381173,-0.0115744
2026-06-18T10:51:46.089954,+0.30,-0.17,-1.03,51.5381173,-0.0115744
2026-06-18T10:51:46.148768,+0.12,-0.09,-0.96,51.5381173,-0.0115744
2026-06-18T10:51:46.208847,+0.06,-0.06,-1.00,51.5381173,-0.0115744
2026-06-18T10:51:46.268883,+0.01,-0.07,-0.96,51.5381173,-0.0115744
2026-06-18T10:51:46.328527,+0.29,-0.20,-0.95,51.5381173,-0.0115744
2026-06-18T10:51:46.420139,+0.09,-0.20,-0.97,51.5381173,-0.0115744
2026-06-18T10:51:46.480353,+0.12,-0.33,-1.00,51.5381173,-0.0115744
2026-06-18T10:51:46.539372,+0.17,-0.18,-0.88,51.5381173,-0.0115744
2026-06-18T10:51:46.598952,+0.10,-0.33,-0.95,51.5381173,-0.0115744
2026-06-18T10:51:46.658462,+0.17,-0.27,-0.98,51.5381173,-0.0115744
2026-06-18T10:51:46.747854,+0.11,-0.21,-0.96,51.5381173,-0.0115744
2026-06-18T10:51:46.807021,+0.09,-0.39,-0.97,51.538101,-0.0115799
2026-06-18T10:51:46.868753,+0.15,-0.41,-0.84,51.538101,-0.0115799
2026-06-18T10:51:46.930790,+0.08,-0.39,-0.96,51.538101,-0.0115799
2026-06-18T10:51:47.018403,+0.15,-0.28,-0.89,51.538101,-0.0115799
2026-06-18T10:51:47.079260,+0.15,-0.24,-0.94,51.538101,-0.0115799
2026-06-18T10:51:47.138706,+0.11,-0.10,-0.97,51.538101,-0.0115799
2026-06-18T10:51:47.201110,+0.11,-0.16,-1.03,51.538101,-0.0115799
2026-06-18T10:51:47.258658,+0.26,-0.23,-0.90,51.538101,-0.0115799
2026-06-18T10:51:47.348986,+0.07,-0.27,-0.94,51.538101,-0.0115799
2026-06-18T10:51:47.409282,+0.15,-0.29,-1.07,51.538101,-0.0115799
2026-06-18T10:51:47.468753,+0.09,-0.16,-1.01,51.538101,-0.0115799
2026-06-18T10:51:47.529794,+0.13,-0.23,-0.96,51.538101,-0.0115799
2026-06-18T10:51:47.590127,+0.13,-0.29,-0.99,51.538101,-0.0115799
2026-06-18T10:51:47.679046,+0.19,-0.26,-1.10,51.538101,-0.0115799
2026-06-18T10:51:47.738779,+0.13,-0.22,-1.02,51.538101,-0.0115799
2026-06-18T10:51:47.796886,+0.11,-0.19,-0.98,51.5380776,-0.0115828
2026-06-18T10:51:47.858555,+0.13,-0.22,-0.98,51.5380776,-0.0115828
2026-06-18T10:51:47.919036,+0.12,-0.23,-0.94,51.5380776,-0.0115828
2026-06-18T10:51:48.009095,+0.11,-0.23,-0.92,51.5380776,-0.0115828
2026-06-18T10:51:48.068465,+0.02,-0.22,-1.00,51.5380776,-0.0115828
2026-06-18T10:51:48.128410,+0.10,-0.28,-0.88,51.5380776,-0.0115828
2026-06-18T10:51:48.219917,+0.08,-0.23,-1.01,51.5380776,-0.0115828
2026-06-18T10:51:48.247605,+0.14,-0.28,-1.08,51.5380776,-0.0115828
2026-06-18T10:51:48.340591,+0.10,-0.22,-0.94,51.5380776,-0.0115828
2026-06-18T10:51:48.399382,+0.13,-0.28,-0.78,51.5380776,-0.0115828
2026-06-18T10:51:48.459311,+0.11,-0.32,-0.87,51.5380776,-0.0115828
2026-06-18T10:51:48.520077,+0.06,-0.28,-1.02,51.5380776,-0.0115828
2026-06-18T10:51:48.579948,+0.14,-0.24,-0.99,51.5380776,-0.0115828
2026-06-18T10:51:48.670114,+0.14,-0.15,-0.88,51.5380776,-0.0115828
2026-06-18T10:51:48.728658,+0.08,-0.25,-0.85,51.5380776,-0.0115828
2026-06-18T10:51:48.794504,+0.12,-0.23,-0.92,51.53805,-0.0115863
2026-06-18T10:51:48.848600,+0.12,-0.18,-0.91,51.53805,-0.0115863
2026-06-18T10:51:48.939910,+0.07,-0.24,-0.92,51.53805,-0.0115863
2026-06-18T10:51:48.999407,+0.09,-0.28,-1.00,51.53805,-0.0115863
2026-06-18T10:51:49.059996,+0.07,-0.18,-0.95,51.53805,-0.0115863
2026-06-18T10:51:49.118780,+0.06,-0.24,-0.99,51.53805,-0.0115863
2026-06-18T10:51:49.178700,+0.03,-0.15,-1.06,51.53805,-0.0115863
2026-06-18T10:51:49.268454,+0.07,-0.13,-1.10,51.53805,-0.0115863
2026-06-18T10:51:49.327970,+0.08,-0.21,-0.87,51.53805,-0.0115863
2026-06-18T10:51:49.389472,+0.09,-0.18,-0.92,51.53805,-0.0115863
2026-06-18T10:51:49.452250,+0.09,-0.27,-0.97,51.53805,-0.0115863
2026-06-18T10:51:49.508356,+0.11,-0.26,-0.94,51.53805,-0.0115863
2026-06-18T10:51:49.599499,+0.04,-0.18,-1.03,51.53805,-0.0115863
2026-06-18T10:51:49.659739,+0.13,-0.29,-0.84,51.53805,-0.0115863
2026-06-18T10:51:49.720508,+0.13,-0.28,-0.94,51.53805,-0.0115863
2026-06-18T10:51:49.777277,+0.07,-0.22,-0.98,51.53805,-0.0115863
2026-06-18T10:51:49.838015,+0.08,-0.13,-0.93,51.5380179,-0.01159
2026-06-18T10:51:49.930262,+0.13,-0.34,-0.87,51.5380179,-0.01159
2026-06-18T10:51:49.988129,+0.08,-0.08,-1.02,51.5380179,-0.01159
2026-06-18T10:51:50.047598,+0.04,-0.13,-1.00,51.5380179,-0.01159
2026-06-18T10:51:50.108945,+0.19,-0.31,-0.96,51.5380179,-0.01159
2026-06-18T10:51:50.168709,+0.15,-0.23,-0.83,51.5380179,-0.01159
2026-06-18T10:51:50.258580,+0.22,-0.31,-0.77,51.5380179,-0.01159
2026-06-18T10:51:50.317851,+0.05,-0.14,-1.00,51.5380179,-0.01159
2026-06-18T10:51:50.380329,+0.06,-0.16,-1.03,51.5380179,-0.01159
2026-06-18T10:51:50.440143,+0.09,-0.30,-0.93,51.5380179,-0.01159
2026-06-18T10:51:50.499744,+0.11,-0.12,-1.04,51.5380179,-0.01159
2026-06-18T10:51:50.589990,+0.14,-0.21,-0.86,51.5380179,-0.01159
2026-06-18T10:51:50.649073,+0.06,-0.16,-1.11,51.5380179,-0.01159
2026-06-18T10:51:50.709334,+0.05,-0.19,-1.13,51.5380179,-0.01159
2026-06-18T10:51:50.768904,+0.05,-0.19,-1.11,51.5380179,-0.01159
2026-06-18T10:51:50.827198,+0.12,-0.32,-0.77,51.5379855,-0.0115832
2026-06-18T10:51:50.920081,+0.13,-0.31,-0.90,51.5379855,-0.0115832
2026-06-18T10:51:50.978998,+0.07,-0.21,-0.91,51.5379855,-0.0115832
2026-06-18T10:51:51.042079,-0.01,-0.20,-1.01,51.5379855,-0.0115832
2026-06-18T10:51:51.131131,+0.10,-0.13,-1.05,51.5379855,-0.0115832
2026-06-18T10:51:51.190443,+0.06,-0.21,-1.13,51.5379855,-0.0115832
2026-06-18T10:51:51.249228,+0.12,-0.20,-0.93,51.5379855,-0.0115832
2026-06-18T10:51:51.308147,+0.18,-0.21,-0.63,51.5379855,-0.0115832
2026-06-18T10:51:51.368955,+0.19,-0.27,-0.90,51.5379855,-0.0115832
2026-06-18T10:51:51.459048,+0.06,-0.10,-1.15,51.5379855,-0.0115832
2026-06-18T10:51:51.518295,+0.04,-0.19,-1.00,51.5379855,-0.0115832
2026-06-18T10:51:51.579540,+0.11,-0.15,-0.72,51.5379855,-0.0115832
2026-06-18T10:51:51.638925,+0.13,-0.14,-0.90,51.5379855,-0.0115832
2026-06-18T10:51:51.698810,+0.08,-0.22,-1.18,51.5379855,-0.0115832
2026-06-18T10:51:51.791360,+0.14,-0.17,-0.76,51.5379525,-0.011566
2026-06-18T10:51:51.849235,+0.16,-0.22,-0.86,51.5379525,-0.011566
2026-06-18T10:51:51.909079,+0.08,-0.27,-1.01,51.5379525,-0.011566
2026-06-18T10:51:51.968849,+0.07,-0.26,-1.16,51.5379525,-0.011566
2026-06-18T10:51:52.029898,+0.05,-0.11,-0.83,51.5379525,-0.011566
2026-06-18T10:51:52.119037,+0.05,-0.28,-0.93,51.5379525,-0.011566
2026-06-18T10:51:52.178139,+0.13,-0.21,-0.80,51.5379525,-0.011566
2026-06-18T10:51:52.238702,+0.06,-0.22,-1.13,51.5379525,-0.011566
2026-06-18T10:51:52.298897,-0.04,-0.01,-1.31,51.5379525,-0.011566
2026-06-18T10:51:52.358529,+0.12,-0.23,-1.02,51.5379525,-0.011566
2026-06-18T10:51:52.448469,+0.09,-0.22,-0.91,51.5379525,-0.011566
2026-06-18T10:51:52.511113,+0.06,-0.25,-0.92,51.5379525,-0.011566
2026-06-18T10:51:52.567829,+0.15,-0.26,-0.90,51.5379525,-0.011566
2026-06-18T10:51:52.629412,+0.10,-0.21,-0.93,51.5379525,-0.011566
2026-06-18T10:51:52.690426,+0.13,-0.23,-0.85,51.5379525,-0.011566
2026-06-18T10:51:52.785755,+0.15,-0.31,-1.03,51.537918,-0.011546
2026-06-18T10:51:52.840316,+0.08,-0.22,-1.01,51.537918,-0.011546
2026-06-18T10:51:52.899478,+0.05,-0.16,-0.89,51.537918,-0.011546
2026-06-18T10:51:52.959142,+0.04,-0.19,-0.95,51.537918,-0.011546
2026-06-18T10:51:53.048630,+0.12,-0.09,-1.08,51.537918,-0.011546
2026-06-18T10:51:53.108063,+0.17,-0.19,-1.04,51.537918,-0.011546
2026-06-18T10:51:53.170738,-0.03,-0.10,-0.96,51.537918,-0.011546
2026-06-18T10:51:53.227921,+0.05,-0.20,-0.95,51.537918,-0.011546
2026-06-18T10:51:53.289011,+0.06,-0.13,-1.25,51.537918,-0.011546
2026-06-18T10:51:53.378767,+0.09,-0.16,-1.11,51.537918,-0.011546
2026-06-18T10:51:53.441122,+0.17,-0.24,-1.12,51.537918,-0.011546
2026-06-18T10:51:53.498367,-0.00,-0.18,-0.89,51.537918,-0.011546
2026-06-18T10:51:53.558607,+0.06,-0.26,-1.08,51.537918,-0.011546
2026-06-18T10:51:53.620645,+0.06,-0.28,-1.08,51.537918,-0.011546
2026-06-18T10:51:53.708918,+0.08,-0.23,-1.06,51.537918,-0.011546
2026-06-18T10:51:53.768583,+0.11,-0.28,-0.86,51.537918,-0.011546
2026-06-18T10:51:53.828218,+0.07,-0.20,-0.82,51.5378824,-0.0115277
2026-06-18T10:51:53.888532,+0.07,-0.19,-1.04,51.5378824,-0.0115277
2026-06-18T10:51:53.947598,-0.13,-0.07,-0.94,51.5378824,-0.0115277
2026-06-18T10:51:54.038660,+0.00,-0.26,-0.96,51.5378824,-0.0115277
2026-06-18T10:51:54.100787,+0.14,-0.25,-0.89,51.5378824,-0.0115277
2026-06-18T10:51:54.188861,+0.06,-0.15,-1.07,51.5378824,-0.0115277
2026-06-18T10:51:54.219474,+0.07,-0.23,-1.02,51.5378824,-0.0115277
2026-06-18T10:51:54.279576,+0.16,-0.24,-1.00,51.5378824,-0.0115277
2026-06-18T10:51:54.368514,+0.14,-0.20,-1.06,51.5378824,-0.0115277
2026-06-18T10:51:54.429170,+0.21,-0.26,-0.50,51.5378824,-0.0115277
2026-06-18T10:51:54.488160,+0.13,-0.22,-1.23,51.5378824,-0.0115277
2026-06-18T10:51:54.549113,+0.10,-0.20,-0.88,51.5378824,-0.0115277
2026-06-18T10:51:54.608167,+0.14,-0.15,-0.59,51.5378824,-0.0115277
2026-06-18T10:51:54.698580,+0.16,-0.19,-1.12,51.5378824,-0.0115277
2026-06-18T10:51:54.761124,+0.09,-0.24,-0.96,51.5378824,-0.0115277
2026-06-18T10:51:54.816399,+0.17,-0.28,-0.92,51.5378461,-0.011511
2026-06-18T10:51:54.880908,+0.04,-0.13,-0.92,51.5378461,-0.011511
2026-06-18T10:51:54.938610,+0.05,-0.29,-1.04,51.5378461,-0.011511
2026-06-18T10:51:55.028368,+0.08,-0.21,-1.07,51.5378461,-0.011511
2026-06-18T10:51:55.087851,+0.07,-0.16,-0.92,51.5378461,-0.011511
2026-06-18T10:51:55.148672,+0.05,-0.23,-1.01,51.5378461,-0.011511
2026-06-18T10:51:55.239737,-0.01,-0.08,-1.02,51.5378461,-0.011511
2026-06-18T10:51:55.299079,+0.04,-0.18,-1.17,51.5378461,-0.011511
2026-06-18T10:51:55.358910,+0.11,-0.27,-1.00,51.5378461,-0.011511
2026-06-18T10:51:55.417739,+0.13,-0.10,-0.83,51.5378461,-0.011511
2026-06-18T10:51:55.478255,+0.16,-0.37,-1.35,51.5378461,-0.011511
2026-06-18T10:51:55.567839,+0.04,-0.29,-0.91,51.5378461,-0.011511
2026-06-18T10:51:55.628302,+0.13,-0.33,-0.76,51.5378461,-0.011511
2026-06-18T10:51:55.691263,+0.30,-0.37,-1.05,51.5378461,-0.011511
2026-06-18T10:51:55.749598,-0.04,-0.09,-0.89,51.5378461,-0.011511
2026-06-18T10:51:55.807583,+0.07,-0.20,-0.95,51.5378058,-0.011491
2026-06-18T10:51:55.900398,+0.06,-0.17,-0.98,51.5378058,-0.011491
2026-06-18T10:51:55.959496,-0.00,-0.08,-0.98,51.5378058,-0.011491
2026-06-18T10:51:56.021532,+0.07,-0.27,-0.98,51.5378058,-0.011491
2026-06-18T10:51:56.078755,+0.14,-0.24,-1.14,51.5378058,-0.011491
2026-06-18T10:51:56.139759,-0.00,-0.07,-0.95,51.5378058,-0.011491
2026-06-18T10:51:56.229096,+0.02,-0.23,-1.10,51.5378058,-0.011491
2026-06-18T10:51:56.289687,+0.10,-0.22,-1.00,51.5378058,-0.011491
2026-06-18T10:51:56.347924,+0.15,-0.31,-0.95,51.5378058,-0.011491
2026-06-18T10:51:56.409156,+0.03,-0.08,-1.04,51.5378058,-0.011491
2026-06-18T10:51:56.468833,+0.14,-0.34,-1.08,51.5378058,-0.011491
2026-06-18T10:51:56.558580,+0.05,-0.24,-1.07,51.5378058,-0.011491
2026-06-18T10:51:56.620185,+0.05,-0.19,-1.08,51.5378058,-0.011491
2026-06-18T10:51:56.678191,-0.02,-0.08,-1.10,51.5378058,-0.011491
2026-06-18T10:51:56.739189,-0.02,-0.07,-1.08,51.5378058,-0.011491
2026-06-18T10:51:56.798594,+0.15,-0.32,-1.01,51.537769,-0.0114713
2026-06-18T10:51:56.888672,+0.07,-0.22,-0.98,51.537769,-0.0114713
2026-06-18T10:51:56.948237,+0.09,-0.27,-0.93,51.537769,-0.0114713
2026-06-18T10:51:57.008407,+0.18,-0.35,-0.91,51.537769,-0.0114713
2026-06-18T10:51:57.069505,+0.08,-0.19,-1.16,51.537769,-0.0114713
2026-06-18T10:51:57.159627,-0.05,-0.04,-1.00,51.537769,-0.0114713
2026-06-18T10:51:57.218110,+0.14,-0.26,-1.04,51.537769,-0.0114713
2026-06-18T10:51:57.280730,+0.07,-0.12,-1.06,51.537769,-0.0114713
2026-06-18T10:51:57.338710,+0.12,-0.19,-0.95,51.537769,-0.0114713
2026-06-18T10:51:57.400071,+0.07,-0.20,-1.07,51.537769,-0.0114713
2026-06-18T10:51:57.489402,+0.14,-0.29,-0.95,51.537769,-0.0114713
2026-06-18T10:51:57.549103,+0.05,-0.27,-1.32,51.537769,-0.0114713
2026-06-18T10:51:57.609089,+0.11,-0.12,-0.55,51.537769,-0.0114713
2026-06-18T10:51:57.668438,+0.07,-0.06,-0.91,51.537769,-0.0114713
2026-06-18T10:51:57.729082,+0.07,-0.24,-1.15,51.537769,-0.0114713
2026-06-18T10:51:57.817083,+0.12,-0.17,-0.97,51.5377385,-0.0114557
2026-06-18T10:51:57.879487,+0.11,-0.26,-0.95,51.5377385,-0.0114557
2026-06-18T10:51:57.939840,+0.09,-0.22,-0.90,51.5377385,-0.0114557
2026-06-18T10:51:57.998412,+0.12,-0.26,-1.14,51.5377385,-0.0114557
2026-06-18T10:51:58.059436,+0.06,-0.21,-0.90,51.5377385,-0.0114557
2026-06-18T10:51:58.148794,+0.08,-0.27,-0.84,51.5377385,-0.0114557
2026-06-18T10:51:58.209980,+0.12,-0.18,-0.98,51.5377385,-0.0114557
2026-06-18T10:51:58.273720,+0.11,-0.21,-0.96,51.5377385,-0.0114557
2026-06-18T10:51:58.328338,+0.14,-0.21,-1.13,51.5377385,-0.0114557
2026-06-18T10:51:58.389359,+0.01,-0.17,-0.86,51.5377385,-0.0114557
2026-06-18T10:51:58.481044,+0.04,-0.23,-0.94,51.5377385,-0.0114557
2026-06-18T10:51:58.539755,+0.07,-0.26,-1.05,51.5377385,-0.0114557
2026-06-18T10:51:58.599512,-0.05,-0.14,-1.16,51.5377385,-0.0114557
2026-06-18T10:51:58.658852,+0.16,-0.19,-0.66,51.5377385,-0.0114557
2026-06-18T10:51:58.721562,+0.31,-0.46,-0.58,51.5377385,-0.0114557
2026-06-18T10:51:58.807285,+0.08,-0.18,-0.94,51.5377101,-0.0114407
2026-06-18T10:51:58.870414,+0.15,-0.25,-0.86,51.5377101,-0.0114407
2026-06-18T10:51:58.930110,+0.23,-0.30,-0.54,51.5377101,-0.0114407
2026-06-18T10:51:58.987911,+0.13,-0.16,-0.72,51.5377101,-0.0114407
2026-06-18T10:51:59.048893,+0.05,-0.08,-0.84,51.5377101,-0.0114407
2026-06-18T10:51:59.138877,+0.15,-0.34,-0.93,51.5377101,-0.0114407
2026-06-18T10:51:59.198676,+0.07,-0.23,-0.78,51.5377101,-0.0114407
2026-06-18T10:51:59.260247,+0.26,-0.31,-0.64,51.5377101,-0.0114407
2026-06-18T10:51:59.318822,+0.24,-0.25,-0.72,51.5377101,-0.0114407
2026-06-18T10:51:59.414672,+0.09,-0.13,-1.05,51.5377101,-0.0114407
2026-06-18T10:51:59.474483,+0.16,-0.24,-0.99,51.5377101,-0.0114407
2026-06-18T10:51:59.530974,+0.09,-0.18,-0.66,51.5377101,-0.0114407
2026-06-18T10:51:59.588601,+0.09,-0.14,-1.01,51.5377101,-0.0114407
2026-06-18T10:51:59.648465,+0.03,-0.16,-0.91,51.5377101,-0.0114407
2026-06-18T10:51:59.738945,+0.07,-0.23,-1.13,51.5377101,-0.0114407
2026-06-18T10:51:59.803952,+0.14,-0.27,-0.87,51.5376796,-0.0114213
2026-06-18T10:51:59.862037,+0.04,-0.23,-1.13,51.5376796,-0.0114213
2026-06-18T10:51:59.918707,+0.02,-0.16,-1.09,51.5376796,-0.0114213
2026-06-18T10:51:59.978934,+0.12,-0.20,-1.08,51.5376796,-0.0114213
2026-06-18T10:52:00.070353,+0.01,-0.12,-0.79,51.5376796,-0.0114213
2026-06-18T10:52:00.128407,-0.08,-0.11,-1.09,51.5376796,-0.0114213
2026-06-18T10:52:00.188804,+0.06,-0.21,-1.18,51.5376796,-0.0114213
2026-06-18T10:52:00.251505,+0.15,-0.32,-1.13,51.5376796,-0.0114213
2026-06-18T10:52:00.308343,+0.21,-0.35,-0.95,51.5376796,-0.0114213
2026-06-18T10:52:00.400127,+0.10,-0.08,-1.02,51.5376796,-0.0114213
2026-06-18T10:52:00.458506,+0.09,-0.25,-0.77,51.5376796,-0.0114213
2026-06-18T10:52:00.522827,+0.10,-0.20,-1.03,51.5376796,-0.0114213
2026-06-18T10:52:00.578652,+0.00,-0.05,-0.94,51.5376796,-0.0114213
2026-06-18T10:52:00.643924,+0.22,-0.21,-0.83,51.5376796,-0.0114213
2026-06-18T10:52:00.729511,+0.03,-0.23,-1.00,51.5376796,-0.0114213
2026-06-18T10:52:00.787602,+0.07,-0.21,-1.02,51.5376458,-0.0114046
2026-06-18T10:52:00.850489,+0.10,-0.23,-0.90,51.5376458,-0.0114046
2026-06-18T10:52:00.909253,+0.16,-0.24,-0.81,51.5376458,-0.0114046
2026-06-18T10:52:00.968855,+0.23,-0.29,-0.85,51.5376458,-0.0114046
2026-06-18T10:52:01.058781,+0.04,-0.22,-1.02,51.5376458,-0.0114046
2026-06-18T10:52:01.118286,+0.05,-0.15,-0.95,51.5376458,-0.0114046
2026-06-18T10:52:01.177191,+0.02,-0.18,-1.04,51.5376458,-0.0114046
2026-06-18T10:52:01.241791,+0.12,-0.20,-1.01,51.5376458,-0.0114046
2026-06-18T10:52:01.329249,+0.08,-0.09,-1.11,51.5376458,-0.0114046
2026-06-18T10:52:01.390293,+0.16,-0.34,-0.89,51.5376458,-0.0114046
2026-06-18T10:52:01.449020,+0.08,-0.28,-0.83,51.5376458,-0.0114046
2026-06-18T10:52:01.508935,+0.08,-0.23,-0.96,51.5376458,-0.0114046
2026-06-18T10:52:01.569399,+0.07,-0.13,-1.03,51.5376458,-0.0114046
2026-06-18T10:52:01.658754,-0.14,-0.09,-1.51,51.5376458,-0.0114046
2026-06-18T10:52:01.722070,+0.23,-0.42,-0.80,51.5376458,-0.0114046
2026-06-18T10:52:01.787112,+0.06,-0.12,-0.84,51.5376099,-0.0113912
2026-06-18T10:52:01.837856,+0.14,-0.27,-0.95,51.5376099,-0.0113912
2026-06-18T10:52:01.898435,+0.21,-0.40,-0.98,51.5376099,-0.0113912
2026-06-18T10:52:01.989118,-0.03,-0.07,-1.09,51.5376099,-0.0113912
2026-06-18T10:52:02.048267,+0.08,-0.17,-0.89,51.5376099,-0.0113912
2026-06-18T10:52:02.108634,-0.02,-0.11,-0.93,51.5376099,-0.0113912
2026-06-18T10:52:02.169094,+0.04,-0.17,-1.01,51.5376099,-0.0113912
2026-06-18T10:52:02.228976,+0.05,-0.15,-1.05,51.5376099,-0.0113912
2026-06-18T10:52:02.322601,+0.08,-0.13,-1.04,51.5376099,-0.0113912
2026-06-18T10:52:02.376795,+0.21,-0.34,-1.07,51.5376099,-0.0113912
2026-06-18T10:52:02.439820,+0.09,-0.20,-0.79,51.5376099,-0.0113912
2026-06-18T10:52:02.499481,+0.12,-0.24,-1.14,51.5376099,-0.0113912
2026-06-18T10:52:02.558005,+0.05,-0.08,-1.04,51.5376099,-0.0113912
2026-06-18T10:52:02.648495,+0.14,-0.29,-0.89,51.5376099,-0.0113912
2026-06-18T10:52:02.710190,+0.06,-0.20,-0.90,51.5376099,-0.0113912
2026-06-18T10:52:02.767568,+0.02,-0.19,-1.07,51.5376099,-0.0113912
2026-06-18T10:52:02.829473,+0.06,-0.24,-1.26,51.5375754,-0.0113837
2026-06-18T10:52:02.890178,+0.09,-0.23,-0.86,51.5375754,-0.0113837
2026-06-18T10:52:02.979492,+0.07,-0.14,-0.83,51.5375754,-0.0113837
2026-06-18T10:52:03.041755,+0.11,-0.27,-0.83,51.5375754,-0.0113837
2026-06-18T10:52:03.104058,+0.08,-0.35,-0.96,51.5375754,-0.0113837
2026-06-18T10:52:03.159850,+0.01,-0.04,-1.08,51.5375754,-0.0113837
2026-06-18T10:52:03.252018,+0.16,-0.33,-0.94,51.5375754,-0.0113837
2026-06-18T10:52:03.309773,+0.09,-0.10,-0.99,51.5375754,-0.0113837
2026-06-18T10:52:03.369378,+0.08,-0.25,-1.05,51.5375754,-0.0113837
2026-06-18T10:52:03.429505,+0.07,-0.27,-1.10,51.5375754,-0.0113837
2026-06-18T10:52:03.519514,+0.01,-0.19,-1.02,51.5375754,-0.0113837
2026-06-18T10:52:03.580670,+0.08,-0.11,-0.88,51.5375754,-0.0113837
2026-06-18T10:52:03.638750,+0.06,-0.23,-0.91,51.5375754,-0.0113837
2026-06-18T10:52:03.698553,+0.05,-0.21,-1.04,51.5375754,-0.0113837
2026-06-18T10:52:03.763593,+0.15,-0.37,-0.97,51.5375754,-0.0113837
2026-06-18T10:52:03.850356,+0.05,-0.16,-0.89,51.5375477,-0.0113862
2026-06-18T10:52:03.909806,-0.00,-0.23,-1.09,51.5375477,-0.0113862
2026-06-18T10:52:03.972935,+0.00,-0.12,-1.00,51.5375477,-0.0113862
2026-06-18T10:52:04.028764,+0.08,-0.14,-1.10,51.5375477,-0.0113862
2026-06-18T10:52:04.089580,+0.07,-0.25,-0.82,51.5375477,-0.0113862
2026-06-18T10:52:04.179861,+0.11,-0.17,-1.00,51.5375477,-0.0113862
2026-06-18T10:52:04.239996,+0.22,-0.18,-0.86,51.5375477,-0.0113862
2026-06-18T10:52:04.299304,+0.10,-0.11,-1.04,51.5375477,-0.0113862
2026-06-18T10:52:04.358789,+0.09,-0.22,-1.06,51.5375477,-0.0113862
2026-06-18T10:52:04.419519,+0.17,-0.33,-0.81,51.5375477,-0.0113862
2026-06-18T10:52:04.509128,+0.04,-0.09,-0.89,51.5375477,-0.0113862
2026-06-18T10:52:04.570210,+0.11,-0.18,-0.91,51.5375477,-0.0113862
2026-06-18T10:52:04.630830,+0.10,-0.17,-1.03,51.5375477,-0.0113862
2026-06-18T10:52:04.691195,+0.09,-0.21,-0.88,51.5375477,-0.0113862
2026-06-18T10:52:04.749097,+0.18,-0.24,-0.96,51.5375477,-0.0113862
2026-06-18T10:52:04.838103,+0.12,-0.19,-0.95,51.5375195,-0.0113848
2026-06-18T10:52:04.898920,-0.03,-0.21,-1.05,51.5375195,-0.0113848
2026-06-18T10:52:04.962234,+0.07,-0.23,-0.90,51.5375195,-0.0113848
2026-06-18T10:52:05.018394,+0.05,-0.11,-1.10,51.5375195,-0.0113848
2026-06-18T10:52:05.079096,+0.06,-0.27,-0.99,51.5375195,-0.0113848
2026-06-18T10:52:05.171467,+0.06,-0.19,-0.92,51.5375195,-0.0113848
2026-06-18T10:52:05.228943,+0.09,-0.19,-1.06,51.5375195,-0.0113848
2026-06-18T10:52:05.290993,+0.15,-0.30,-0.77,51.5375195,-0.0113848
2026-06-18T10:52:05.354002,+0.11,-0.17,-0.97,51.5375195,-0.0113848
2026-06-18T10:52:05.439631,+0.05,-0.25,-1.10,51.5375195,-0.0113848
2026-06-18T10:52:05.499131,+0.00,-0.09,-1.07,51.5375195,-0.0113848
2026-06-18T10:52:05.558652,+0.07,-0.21,-0.94,51.5375195,-0.0113848
2026-06-18T10:52:05.620906,-0.03,+0.08,-0.94,51.5375195,-0.0113848
2026-06-18T10:52:05.681298,+0.01,-0.28,-1.38,51.5375195,-0.0113848
2026-06-18T10:52:05.771492,+0.08,-0.30,-0.93,51.5375195,-0.0113848
2026-06-18T10:52:05.827778,+0.08,-0.17,-0.85,51.5374906,-0.0113943
2026-06-18T10:52:05.890210,-0.06,-0.08,-1.03,51.5374906,-0.0113943
2026-06-18T10:52:05.950212,+0.06,-0.23,-0.88,51.5374906,-0.0113943
2026-06-18T10:52:06.011513,+0.06,-0.19,-1.38,51.5374906,-0.0113943
2026-06-18T10:52:06.099694,-0.15,+0.11,-1.13,51.5374906,-0.0113943
2026-06-18T10:52:06.162240,+0.23,-0.30,-0.69,51.5374906,-0.0113943
2026-06-18T10:52:06.220112,+0.15,-0.12,-0.84,51.5374906,-0.0113943
2026-06-18T10:52:06.281364,+0.07,-0.29,-1.11,51.5374906,-0.0113943
2026-06-18T10:52:06.338435,+0.06,-0.23,-0.94,51.5374906,-0.0113943
2026-06-18T10:52:06.430097,+0.06,-0.10,-0.84,51.5374906,-0.0113943
2026-06-18T10:52:06.490327,+0.11,-0.26,-1.09,51.5374906,-0.0113943
2026-06-18T10:52:06.550964,+0.09,-0.14,-1.01,51.5374906,-0.0113943
2026-06-18T10:52:06.608923,+0.11,-0.24,-1.07,51.5374906,-0.0113943
2026-06-18T10:52:06.673078,+0.04,-0.11,-0.91,51.5374906,-0.0113943
2026-06-18T10:52:06.765592,+0.02,-0.10,-1.05,51.5374906,-0.0113943
2026-06-18T10:52:06.821146,+0.13,-0.26,-0.87,51.5374582,-0.0113983
2026-06-18T10:52:06.879177,+0.14,-0.34,-0.93,51.5374582,-0.0113983
2026-06-18T10:52:06.939588,+0.09,-0.20,-1.02,51.5374582,-0.0113983
2026-06-18T10:52:07.000510,+0.03,-0.22,-0.97,51.5374582,-0.0113983
2026-06-18T10:52:07.089492,+0.16,-0.25,-0.82,51.5374582,-0.0113983
2026-06-18T10:52:07.149488,+0.17,-0.20,-0.80,51.5374582,-0.0113983
2026-06-18T10:52:07.208053,+0.12,-0.14,-1.06,51.5374582,-0.0113983
2026-06-18T10:52:07.268500,+0.02,-0.11,-1.21,51.5374582,-0.0113983
2026-06-18T10:52:07.333113,+0.17,-0.26,-0.66,51.5374582,-0.0113983
2026-06-18T10:52:07.421427,-0.00,-0.09,-1.03,51.5374582,-0.0113983
2026-06-18T10:52:07.479123,+0.20,-0.34,-0.61,51.5374582,-0.0113983
2026-06-18T10:52:07.538964,+0.15,-0.31,-1.08,51.5374582,-0.0113983
2026-06-18T10:52:07.599787,-0.09,-0.00,-1.03,51.5374582,-0.0113983
2026-06-18T10:52:07.687830,+0.06,-0.26,-1.02,51.5374582,-0.0113983
2026-06-18T10:52:07.748575,-0.06,+0.01,-1.00,51.5374582,-0.0113983
2026-06-18T10:52:07.806945,+0.06,-0.15,-1.14,51.5374312,-0.0114074
2026-06-18T10:52:07.868196,+0.16,-0.32,-0.75,51.5374312,-0.0114074
2026-06-18T10:52:07.929760,+0.09,-0.19,-1.07,51.5374312,-0.0114074
2026-06-18T10:52:08.019549,+0.25,-0.43,-0.85,51.5374312,-0.0114074
2026-06-18T10:52:08.080121,+0.02,-0.11,-1.05,51.5374312,-0.0114074
2026-06-18T10:52:08.143217,+0.04,-0.12,-0.95,51.5374312,-0.0114074
2026-06-18T10:52:08.232007,+0.17,-0.29,-0.96,51.5374312,-0.0114074
2026-06-18T10:52:08.258610,-0.06,-0.15,-1.19,51.5374312,-0.0114074
2026-06-18T10:52:08.352330,+0.03,-0.09,-0.90,51.5374312,-0.0114074
2026-06-18T10:52:08.408126,+0.09,-0.24,-0.95,51.5374312,-0.0114074
2026-06-18T10:52:08.475061,+0.14,-0.19,-0.91,51.5374312,-0.0114074
2026-06-18T10:52:08.531094,+0.06,-0.09,-0.88,51.5374312,-0.0114074
2026-06-18T10:52:08.591735,+0.27,-0.31,-0.84,51.5374312,-0.0114074
2026-06-18T10:52:08.681367,+0.07,-0.28,-0.78,51.5374312,-0.0114074
2026-06-18T10:52:08.740132,+0.04,-0.16,-1.15,51.5374312,-0.0114074
2026-06-18T10:52:08.804452,+0.07,-0.15,-1.01,51.5374065,-0.0114051
2026-06-18T10:52:08.860849,-0.10,+0.07,-0.84,51.5374065,-0.0114051
2026-06-18T10:52:08.951023,+0.05,-0.20,-0.97,51.5374065,-0.0114051
2026-06-18T10:52:09.069150,+0.07,-0.23,-1.07,51.5374065,-0.0114051
2026-06-18T10:52:09.070053,-0.02,-0.17,-1.06,51.5374065,-0.0114051
2026-06-18T10:52:09.128467,+0.22,-0.27,-0.60,51.5374065,-0.0114051
2026-06-18T10:52:09.192386,+0.22,-0.32,-0.70,51.5374065,-0.0114051
2026-06-18T10:52:09.285171,-0.03,-0.06,-1.15,51.5374065,-0.0114051
2026-06-18T10:52:09.374039,+0.09,-0.24,-0.76,51.5374065,-0.0114051
2026-06-18T10:52:09.398830,+0.10,-0.18,-0.83,51.5374065,-0.0114051
2026-06-18T10:52:09.460018,+0.06,-0.24,-1.24,51.5374065,-0.0114051
2026-06-18T10:52:09.552061,+0.16,-0.21,-0.89,51.5374065,-0.0114051
2026-06-18T10:52:09.615527,+0.08,-0.21,-0.97,51.5374065,-0.0114051
2026-06-18T10:52:09.671125,+0.09,-0.20,-0.98,51.5374065,-0.0114051
2026-06-18T10:52:09.731817,+0.01,-0.13,-1.12,51.5374065,-0.0114051
2026-06-18T10:52:09.794909,+0.07,-0.09,-0.81,51.5373807,-0.0113944
2026-06-18T10:52:09.881886,+0.08,-0.14,-0.73,51.5373807,-0.0113944
2026-06-18T10:52:09.939132,+0.18,-0.38,-1.01,51.5373807,-0.0113944
2026-06-18T10:52:10.003850,+0.04,-0.19,-0.93,51.5373807,-0.0113944
2026-06-18T10:52:10.060872,+0.08,-0.23,-0.98,51.5373807,-0.0113944
2026-06-18T10:52:10.148587,+0.06,-0.23,-0.91,51.5373807,-0.0113944
2026-06-18T10:52:10.207644,+0.12,-0.30,-1.09,51.5373807,-0.0113944
2026-06-18T10:52:10.270032,-0.18,+0.01,-1.19,51.5373807,-0.0113944
2026-06-18T10:52:10.327676,+0.09,-0.31,-0.95,51.5373807,-0.0113944
2026-06-18T10:52:10.392865,+0.15,-0.21,-0.83,51.5373807,-0.0113944
2026-06-18T10:52:10.450498,-0.07,+0.04,-1.14,51.5373807,-0.0113944
2026-06-18T10:52:10.541834,+0.05,-0.21,-1.05,51.5373807,-0.0113944
2026-06-18T10:52:10.598674,+0.14,-0.24,-1.03,51.5373807,-0.0113944
2026-06-18T10:52:10.660599,+0.11,-0.27,-0.74,51.5373807,-0.0113944
2026-06-18T10:52:10.719560,+0.06,-0.12,-0.92,51.5373807,-0.0113944
2026-06-18T10:52:10.778711,+0.10,-0.13,-1.13,51.5373807,-0.0113944
2026-06-18T10:52:10.868403,+0.02,-0.15,-0.94,51.537357,-0.0113908
2026-06-18T10:52:10.929059,-0.02,-0.14,-1.00,51.537357,-0.0113908
2026-06-18T10:52:10.989043,+0.03,-0.19,-0.93,51.537357,-0.0113908
2026-06-18T10:52:11.050234,+0.01,-0.27,-1.13,51.537357,-0.0113908
2026-06-18T10:52:11.110242,+0.04,-0.23,-1.16,51.537357,-0.0113908
2026-06-18T10:52:11.198640,-0.03,-0.10,-1.07,51.537357,-0.0113908
2026-06-18T10:52:11.262240,+0.18,-0.42,-1.04,51.537357,-0.0113908
2026-06-18T10:52:11.322148,-0.10,-0.12,-1.03,51.537357,-0.0113908
2026-06-18T10:52:11.378736,-0.01,-0.06,-1.08,51.537357,-0.0113908
2026-06-18T10:52:11.438864,-0.02,-0.22,-1.37,51.537357,-0.0113908
2026-06-18T10:52:11.532196,+0.23,-0.03,-0.77,51.537357,-0.0113908
2026-06-18T10:52:11.591045,-0.11,-0.25,-1.26,51.537357,-0.0113908
2026-06-18T10:52:11.648599,+0.13,-0.23,-0.80,51.537357,-0.0113908
2026-06-18T10:52:11.709875,-0.08,+0.02,-1.26,51.537357,-0.0113908
2026-06-18T10:52:11.797012,-0.02,-0.40,-1.42,51.537313,-0.0113713
2026-06-18T10:52:11.858669,+0.42,-0.58,-0.33,51.537313,-0.0113713
2026-06-18T10:52:11.919028,+0.12,-0.23,-0.98,51.537313,-0.0113713
2026-06-18T10:52:11.980454,+0.27,-0.22,-0.33,51.537313,-0.0113713
2026-06-18T10:52:12.040654,+0.08,-0.06,-0.96,51.537313,-0.0113713
2026-06-18T10:52:12.128846,+0.12,-0.41,-1.04,51.537313,-0.0113713
2026-06-18T10:52:12.188823,+0.09,-0.16,-0.96,51.537313,-0.0113713
2026-06-18T10:52:12.252100,-0.00,-0.21,-1.37,51.537313,-0.0113713
2026-06-18T10:52:12.308894,+0.10,-0.26,-1.04,51.537313,-0.0113713
2026-06-18T10:52:12.370999,+0.01,-0.18,-0.87,51.537313,-0.0113713
2026-06-18T10:52:12.460382,-0.02,-0.20,-1.32,51.537313,-0.0113713
2026-06-18T10:52:12.520250,+0.10,-0.42,-0.89,51.537313,-0.0113713
2026-06-18T10:52:12.579450,-0.12,+0.03,-1.00,51.537313,-0.0113713
2026-06-18T10:52:12.642687,+0.10,-0.08,-1.15,51.537313,-0.0113713
2026-06-18T10:52:12.698789,+0.04,-0.10,-0.59,51.537313,-0.0113713
2026-06-18T10:52:12.792254,-0.21,+0.18,-1.44,51.5372675,-0.0113338
2026-06-18T10:52:12.850023,+0.19,-0.43,-1.00,51.5372675,-0.0113338
2026-06-18T10:52:12.911,+0.21,-0.42,-0.88,51.5372675,-0.0113338
2026-06-18T10:52:12.970183,+0.06,-0.17,-1.02,51.5372675,-0.0113338
2026-06-18T10:52:13.032136,-0.17,+0.09,-1.51,51.5372675,-0.0113338
2026-06-18T10:52:13.121938,+0.04,-0.35,-1.09,51.5372675,-0.0113338
2026-06-18T10:52:13.181224,-0.04,-0.06,-0.81,51.5372675,-0.0113338
2026-06-18T10:52:13.239812,+0.04,-0.28,-0.88,51.5372675,-0.0113338
2026-06-18T10:52:13.300767,+0.12,-0.20,-0.86,51.5372675,-0.0113338
2026-06-18T10:52:13.364506,+0.06,-0.26,-0.89,51.5372675,-0.0113338
2026-06-18T10:52:13.447322,+0.14,-0.30,-1.07,51.5372675,-0.0113338
2026-06-18T10:52:13.509741,+0.08,-0.19,-0.57,51.5372675,-0.0113338
2026-06-18T10:52:13.573497,+0.01,+0.04,-0.91,51.5372675,-0.0113338
2026-06-18T10:52:13.630790,+0.33,-0.54,-0.58,51.5372675,-0.0113338
2026-06-18T10:52:13.719074,-0.13,+0.01,-1.56,51.5372675,-0.0113338
2026-06-18T10:52:13.779847,+0.23,-0.37,-0.65,51.5372675,-0.0113338
2026-06-18T10:52:13.838877,-0.01,-0.02,-0.85,51.537226,-0.0112888
2026-06-18T10:52:13.899614,+0.11,-0.26,-1.05,51.537226,-0.0112888
2026-06-18T10:52:13.962001,+0.17,-0.13,-1.09,51.537226,-0.0112888
2026-06-18T10:52:14.056099,+0.07,-0.24,-0.81,51.537226,-0.0112888
2026-06-18T10:52:14.110053,-0.04,-0.30,-1.09,51.537226,-0.0112888
2026-06-18T10:52:14.171846,+0.11,-0.06,-0.88,51.537226,-0.0112888
2026-06-18T10:52:14.230998,+0.10,-0.27,-1.02,51.537226,-0.0112888
2026-06-18T10:52:14.292218,+0.13,-0.13,-1.00,51.537226,-0.0112888
2026-06-18T10:52:14.382206,+0.08,-0.34,-1.07,51.537226,-0.0112888
2026-06-18T10:52:14.438391,+0.05,-0.25,-0.97,51.537226,-0.0112888
2026-06-18T10:52:14.500747,+0.08,-0.19,-0.90,51.537226,-0.0112888
2026-06-18T10:52:14.561870,-0.04,+0.01,-1.21,51.537226,-0.0112888
2026-06-18T10:52:14.618765,-0.01,-0.16,-0.98,51.537226,-0.0112888
2026-06-18T10:52:14.712181,-0.18,+0.07,-1.45,51.537226,-0.0112888
2026-06-18T10:52:14.767641,+0.08,-0.24,-1.17,51.537226,-0.0112888
2026-06-18T10:52:14.829079,+0.06,-0.23,-1.18,51.5371883,-0.0112449
2026-06-18T10:52:14.889425,+0.17,-0.34,-0.80,51.5371883,-0.0112449
2026-06-18T10:52:14.949572,+0.10,-0.15,-1.07,51.5371883,-0.0112449
2026-06-18T10:52:15.043621,+0.06,-0.15,-1.13,51.5371883,-0.0112449
2026-06-18T10:52:15.098781,+0.00,-0.13,-0.92,51.5371883,-0.0112449
2026-06-18T10:52:15.161182,+0.30,-0.31,-0.56,51.5371883,-0.0112449
2026-06-18T10:52:15.219433,-0.07,+0.15,-1.30,51.5371883,-0.0112449
2026-06-18T10:52:15.279744,+0.12,-0.27,-1.02,51.5371883,-0.0112449
2026-06-18T10:52:15.372589,+0.07,-0.23,-0.96,51.5371883,-0.0112449
2026-06-18T10:52:15.429711,+0.11,-0.27,-0.91,51.5371883,-0.0112449
2026-06-18T10:52:15.489529,+0.10,-0.31,-1.12,51.5371883,-0.0112449
2026-06-18T10:52:15.549944,+0.08,-0.07,-1.05,51.5371883,-0.0112449
2026-06-18T10:52:15.643365,+0.08,-0.21,-1.03,51.5371883,-0.0112449
2026-06-18T10:52:15.699665,+0.04,-0.23,-0.98,51.5371883,-0.0112449
2026-06-18T10:52:15.766078,+0.10,-0.28,-1.04,51.5371883,-0.0112449
2026-06-18T10:52:15.818896,-0.15,+0.08,-1.42,51.5371534,-0.0111985
2026-06-18T10:52:15.882040,+0.11,-0.20,-0.78,51.5371534,-0.0111985
2026-06-18T10:52:15.970258,+0.12,-0.20,-0.94,51.5371534,-0.0111985
2026-06-18T10:52:16.030060,+0.08,-0.22,-0.75,51.5371534,-0.0111985
2026-06-18T10:52:16.091939,+0.09,-0.29,-0.93,51.5371534,-0.0111985
2026-06-18T10:52:16.152284,+0.14,-0.23,-1.08,51.5371534,-0.0111985
2026-06-18T10:52:16.208788,+0.11,-0.22,-1.11,51.5371534,-0.0111985
2026-06-18T10:52:16.303856,+0.06,+0.02,-1.02,51.5371534,-0.0111985
2026-06-18T10:52:16.360736,+0.02,-0.22,-1.01,51.5371534,-0.0111985
2026-06-18T10:52:16.421540,-0.01,-0.10,-1.14,51.5371534,-0.0111985
2026-06-18T10:52:16.479169,+0.06,-0.19,-1.04,51.5371534,-0.0111985
2026-06-18T10:52:16.541807,+0.19,-0.18,-0.73,51.5371534,-0.0111985
2026-06-18T10:52:16.633521,+0.09,-0.22,-0.89,51.5371534,-0.0111985
2026-06-18T10:52:16.689888,+0.09,-0.30,-1.19,51.5371534,-0.0111985
2026-06-18T10:52:16.752657,+0.16,-0.32,-0.79,51.5371534,-0.0111985
2026-06-18T10:52:16.806961,-0.04,-0.10,-0.97,51.5371225,-0.0111489
2026-06-18T10:52:16.868324,+0.12,-0.21,-0.92,51.5371225,-0.0111489
2026-06-18T10:52:16.960687,+0.09,-0.23,-1.03,51.5371225,-0.0111489
2026-06-18T10:52:17.019140,+0.08,-0.16,-0.80,51.5371225,-0.0111489
2026-06-18T10:52:17.079405,+0.08,-0.16,-1.10,51.5371225,-0.0111489
2026-06-18T10:52:17.141884,+0.06,-0.20,-1.16,51.5371225,-0.0111489
2026-06-18T10:52:17.199444,+0.07,-0.11,-0.99,51.5371225,-0.0111489
2026-06-18T10:52:17.288560,+0.23,-0.27,-0.75,51.5371225,-0.0111489
2026-06-18T10:52:17.352006,+0.22,-0.21,-0.88,51.5371225,-0.0111489
2026-06-18T10:52:17.408418,-0.16,-0.05,-1.16,51.5371225,-0.0111489
2026-06-18T10:52:17.470760,+0.20,-0.17,-0.80,51.5371225,-0.0111489
2026-06-18T10:52:17.531318,+0.17,-0.21,-0.90,51.5371225,-0.0111489
2026-06-18T10:52:17.619439,+0.03,-0.12,-0.89,51.5371225,-0.0111489
2026-06-18T10:52:17.679297,+0.11,-0.23,-0.94,51.5371225,-0.0111489
2026-06-18T10:52:17.739283,+0.08,-0.27,-1.02,51.5371225,-0.0111489
2026-06-18T10:52:17.829924,+0.12,-0.22,-0.82,51.5370932,-0.0110994
2026-06-18T10:52:17.889133,+0.05,-0.20,-0.91,51.5370932,-0.0110994
2026-06-18T10:52:17.951367,-0.00,-0.11,-0.92,51.5370932,-0.0110994
2026-06-18T10:52:18.010400,+0.07,-0.27,-1.04,51.5370932,-0.0110994
2026-06-18T10:52:18.068313,+0.12,-0.21,-0.84,51.5370932,-0.0110994
2026-06-18T10:52:18.161166,+0.10,-0.23,-1.09,51.5370932,-0.0110994
2026-06-18T10:52:18.218369,+0.12,-0.29,-1.14,51.5370932,-0.0110994
2026-06-18T10:52:18.280403,+0.07,-0.23,-0.94,51.5370932,-0.0110994
2026-06-18T10:52:18.336837,+0.23,-0.34,-0.79,51.5370932,-0.0110994
2026-06-18T10:52:18.430617,+0.18,-0.25,-0.89,51.5370932,-0.0110994
2026-06-18T10:52:18.487907,+0.03,-0.25,-0.94,51.5370932,-0.0110994
2026-06-18T10:52:18.551121,-0.07,+0.06,-1.02,51.5370932,-0.0110994
2026-06-18T10:52:18.608051,+0.05,-0.24,-1.17,51.5370932,-0.0110994
2026-06-18T10:52:18.669750,+0.07,-0.27,-0.89,51.5370932,-0.0110994
2026-06-18T10:52:18.731657,+0.07,-0.21,-0.89,51.5370932,-0.0110994
2026-06-18T10:52:18.823408,+0.07,-0.22,-1.08,51.5370645,-0.0110506
2026-06-18T10:52:18.880090,-0.03,+0.02,-1.14,51.5370645,-0.0110506
2026-06-18T10:52:18.936685,+0.04,-0.20,-1.00,51.5370645,-0.0110506
2026-06-18T10:52:19.001555,+0.09,-0.30,-0.79,51.5370645,-0.0110506
2026-06-18T10:52:19.059753,+0.08,-0.13,-1.07,51.5370645,-0.0110506
2026-06-18T10:52:19.148323,+0.30,-0.30,-0.83,51.5370645,-0.0110506
2026-06-18T10:52:19.207974,+0.13,-0.15,-1.08,51.5370645,-0.0110506
2026-06-18T10:52:19.268887,+0.05,-0.01,-1.12,51.5370645,-0.0110506
2026-06-18T10:52:19.331524,+0.14,-0.20,-0.85,51.5370645,-0.0110506
2026-06-18T10:52:19.388512,+0.13,-0.34,-0.86,51.5370645,-0.0110506
2026-06-18T10:52:19.514885,+0.13,-0.10,-0.91,51.5370645,-0.0110506
2026-06-18T10:52:19.538258,+0.19,-0.22,-0.88,51.5370645,-0.0110506
2026-06-18T10:52:19.600274,+0.09,-0.22,-1.02,51.5370645,-0.0110506
2026-06-18T10:52:19.664188,+0.15,-0.27,-0.84,51.5370645,-0.0110506
2026-06-18T10:52:19.750283,+0.12,-0.24,-1.07,51.5370645,-0.0110506
2026-06-18T10:52:19.809618,+0.09,-0.37,-0.76,51.5370365,-0.0110019
2026-06-18T10:52:19.872465,+0.08,-0.13,-0.87,51.5370365,-0.0110019
2026-06-18T10:52:19.930143,+0.13,-0.28,-0.76,51.5370365,-0.0110019
2026-06-18T10:52:19.990784,+0.06,-0.17,-0.88,51.5370365,-0.0110019
2026-06-18T10:52:20.080296,+0.10,-0.12,-0.70,51.5370365,-0.0110019
2026-06-18T10:52:20.139048,+0.14,-0.19,-1.05,51.5370365,-0.0110019
2026-06-18T10:52:20.203360,-0.02,-0.14,-1.03,51.5370365,-0.0110019
2026-06-18T10:52:20.259729,+0.06,-0.24,-0.89,51.5370365,-0.0110019
2026-06-18T10:52:20.321555,+0.17,-0.27,-0.72,51.5370365,-0.0110019
2026-06-18T10:52:20.409339,+0.03,-0.18,-0.83,51.5370365,-0.0110019
2026-06-18T10:52:20.468156,+0.27,-0.35,-0.99,51.5370365,-0.0110019
2026-06-18T10:52:20.529083,+0.06,-0.11,-1.02,51.5370365,-0.0110019
2026-06-18T10:52:20.588508,+0.08,-0.30,-0.96,51.5370365,-0.0110019
2026-06-18T10:52:20.651149,+0.09,-0.23,-1.15,51.5370365,-0.0110019
2026-06-18T10:52:20.739511,+0.11,-0.25,-0.69,51.5370365,-0.0110019
2026-06-18T10:52:20.798741,+0.09,-0.23,-0.82,51.5370095,-0.0109558
2026-06-18T10:52:20.889757,+0.05,-0.14,-1.04,51.5370095,-0.0109558
2026-06-18T10:52:20.917809,+0.09,-0.14,-0.87,51.5370095,-0.0109558
2026-06-18T10:52:20.981654,+0.06,-0.11,-0.83,51.5370095,-0.0109558
2026-06-18T10:52:21.070654,+0.06,-0.19,-1.12,51.5370095,-0.0109558
2026-06-18T10:52:21.130121,+0.27,-0.26,-0.69,51.5370095,-0.0109558
2026-06-18T10:52:21.189142,+0.17,-0.23,-1.00,51.5370095,-0.0109558
2026-06-18T10:52:21.253869,+0.07,-0.19,-0.98,51.5370095,-0.0109558
2026-06-18T10:52:21.311073,+0.01,-0.16,-1.05,51.5370095,-0.0109558
2026-06-18T10:52:21.403148,-0.02,-0.16,-0.93,51.5370095,-0.0109558
2026-06-18T10:52:21.459765,+0.15,-0.13,-0.87,51.5370095,-0.0109558
2026-06-18T10:52:21.524117,+0.14,-0.36,-0.74,51.5370095,-0.0109558
2026-06-18T10:52:21.608518,+0.11,-0.22,-0.85,51.5370095,-0.0109558
2026-06-18T10:52:21.637879,+0.13,-0.25,-1.03,51.5370095,-0.0109558
2026-06-18T10:52:21.736680,+0.18,-0.36,-0.78,51.5370095,-0.0109558
2026-06-18T10:52:21.819221,+0.14,-0.43,-0.96,51.5369797,-0.0109139
2026-06-18T10:52:21.848160,-0.01,-0.08,-1.14,51.5369797,-0.0109139
2026-06-18T10:52:21.909437,-0.08,-0.07,-1.17,51.5369797,-0.0109139
2026-06-18T10:52:21.998754,+0.18,-0.32,-0.83,51.5369797,-0.0109139
2026-06-18T10:52:22.060381,+0.08,-0.15,-1.08,51.5369797,-0.0109139
2026-06-18T10:52:22.121237,+0.13,-0.22,-0.92,51.5369797,-0.0109139
2026-06-18T10:52:22.179448,+0.08,-0.27,-1.08,51.5369797,-0.0109139
2026-06-18T10:52:22.241142,+0.03,-0.16,-1.02,51.5369797,-0.0109139
2026-06-18T10:52:22.329125,+0.19,-0.22,-0.70,51.5369797,-0.0109139
2026-06-18T10:52:22.390241,-0.02,-0.25,-1.11,51.5369797,-0.0109139
2026-06-18T10:52:22.449082,-0.01,-0.04,-0.95,51.5369797,-0.0109139
2026-06-18T10:52:22.507779,+0.09,-0.19,-1.15,51.5369797,-0.0109139
2026-06-18T10:52:22.568531,+0.10,-0.26,-1.01,51.5369797,-0.0109139
2026-06-18T10:52:22.660382,+0.12,-0.26,-0.77,51.5369797,-0.0109139
2026-06-18T10:52:22.718144,+0.04,-0.23,-1.02,51.5369797,-0.0109139
2026-06-18T10:52:22.782193,+0.16,-0.25,-0.84,51.5369496,-0.010875
2026-06-18T10:52:22.840855,+0.17,-0.18,-0.98,51.5369496,-0.010875
2026-06-18T10:52:22.901116,+0.04,-0.18,-0.91,51.5369496,-0.010875
2026-06-18T10:52:22.995324,+0.03,+0.03,-0.91,51.5369496,-0.010875
2026-06-18T10:52:23.048309,+0.17,-0.21,-1.03,51.5369496,-0.010875
2026-06-18T10:52:23.110432,-0.12,-0.16,-1.95,51.5369496,-0.010875
2026-06-18T10:52:23.169979,+0.00,-0.14,-1.10,51.5369496,-0.010875
2026-06-18T10:52:23.231064,+0.07,-0.22,-1.19,51.5369496,-0.010875
2026-06-18T10:52:23.321638,+0.12,-0.28,-0.96,51.5369496,-0.010875
2026-06-18T10:52:23.378050,-0.14,+0.05,-1.21,51.5369496,-0.010875
2026-06-18T10:52:23.441090,+0.09,-0.07,-0.81,51.5369496,-0.010875
2026-06-18T10:52:23.500211,+0.15,-0.23,-0.84,51.5369496,-0.010875
2026-06-18T10:52:23.557860,+0.04,-0.18,-0.96,51.5369496,-0.010875
2026-06-18T10:52:23.651615,+0.09,-0.26,-0.95,51.5369496,-0.010875
2026-06-18T10:52:23.708017,+0.04,-0.19,-0.88,51.5369496,-0.010875
2026-06-18T10:52:23.767911,+0.09,-0.23,-0.95,51.5369496,-0.010875
2026-06-18T10:52:23.859139,+0.11,-0.23,-0.97,51.5369167,-0.0108426
2026-06-18T10:52:23.918552,+0.05,-0.21,-0.89,51.5369167,-0.0108426
2026-06-18T10:52:23.979791,+0.07,-0.27,-0.87,51.5369167,-0.0108426
2026-06-18T10:52:24.040776,+0.13,-0.25,-1.05,51.5369167,-0.0108426
2026-06-18T10:52:24.101088,+0.13,-0.27,-0.95,51.5369167,-0.0108426
2026-06-18T10:52:24.194112,+0.06,-0.21,-1.01,51.5369167,-0.0108426
2026-06-18T10:52:24.248358,+0.07,-0.22,-0.85,51.5369167,-0.0108426
2026-06-18T10:52:24.312263,+0.04,-0.23,-1.03,51.5369167,-0.0108426
2026-06-18T10:52:24.375771,-0.05,-0.09,-1.16,51.5369167,-0.0108426
2026-06-18T10:52:24.428008,+0.00,+0.01,-0.84,51.5369167,-0.0108426
2026-06-18T10:52:24.518509,+0.10,-0.15,-0.95,51.5369167,-0.0108426
2026-06-18T10:52:24.578637,+0.11,-0.25,-1.02,51.5369167,-0.0108426
2026-06-18T10:52:24.638795,+0.16,-0.28,-1.02,51.5369167,-0.0108426
2026-06-18T10:52:24.701944,+0.07,-0.21,-0.97,51.5369167,-0.0108426
2026-06-18T10:52:24.764372,+0.12,-0.17,-1.06,51.5369167,-0.0108426
2026-06-18T10:52:24.851214,+0.27,-0.39,-1.01,51.5368807,-0.0108206
2026-06-18T10:52:24.909291,+0.00,-0.21,-1.29,51.5368807,-0.0108206
2026-06-18T10:52:24.970756,+0.08,-0.25,-0.78,51.5368807,-0.0108206
2026-06-18T10:52:25.031490,+0.10,-0.18,-0.94,51.5368807,-0.0108206
2026-06-18T10:52:25.094043,+0.10,-0.31,-1.16,51.5368807,-0.0108206
2026-06-18T10:52:25.183553,+0.13,-0.13,-0.82,51.5368807,-0.0108206
2026-06-18T10:52:25.239316,+0.07,-0.25,-1.12,51.5368807,-0.0108206
2026-06-18T10:52:25.298392,+0.13,-0.32,-0.97,51.5368807,-0.0108206
2026-06-18T10:52:25.358213,-0.01,+0.04,-1.09,51.5368807,-0.0108206
2026-06-18T10:52:25.419541,+0.12,-0.16,-0.90,51.5368807,-0.0108206
2026-06-18T10:52:25.508411,-0.00,-0.11,-0.98,51.5368807,-0.0108206
2026-06-18T10:52:25.567693,+0.04,-0.23,-1.09,51.5368807,-0.0108206
2026-06-18T10:52:25.631075,-0.03,-0.14,-1.18,51.5368807,-0.0108206
2026-06-18T10:52:25.720435,+0.11,-0.24,-0.95,51.5368807,-0.0108206
2026-06-18T10:52:25.748432,+0.01,-0.13,-1.20,51.5368807,-0.0108206
2026-06-18T10:52:25.839407,+0.06,-0.15,-1.00,51.5368416,-0.0108115
2026-06-18T10:52:25.900078,-0.07,-0.04,-1.22,51.5368416,-0.0108115
2026-06-18T10:52:25.989300,-0.05,-0.13,-1.17,51.5368416,-0.0108115
2026-06-18T10:52:26.018546,+0.03,-0.19,-0.93,51.5368416,-0.0108115
2026-06-18T10:52:26.111479,+0.05,-0.09,-0.82,51.5368416,-0.0108115
2026-06-18T10:52:26.173259,+0.07,-0.15,-1.15,51.5368416,-0.0108115
2026-06-18T10:52:26.230287,+0.06,-0.18,-1.09,51.5368416,-0.0108115
2026-06-18T10:52:26.291626,-0.05,-0.08,-0.92,51.5368416,-0.0108115
2026-06-18T10:52:26.350426,+0.13,-0.18,-0.81,51.5368416,-0.0108115
2026-06-18T10:52:26.440699,+0.16,-0.16,-1.12,51.5368416,-0.0108115
2026-06-18T10:52:26.502341,+0.12,-0.35,-0.91,51.5368416,-0.0108115
2026-06-18T10:52:26.561594,+0.06,-0.23,-1.02,51.5368416,-0.0108115
2026-06-18T10:52:26.619970,+0.20,-0.34,-0.82,51.5368416,-0.0108115
2026-06-18T10:52:26.680174,+0.01,-0.15,-1.23,51.5368416,-0.0108115
2026-06-18T10:52:26.767051,+0.16,-0.26,-0.80,51.5368416,-0.0108115
2026-06-18T10:52:26.828695,-0.05,-0.12,-1.07,51.536801,-0.0108191
2026-06-18T10:52:26.889921,-0.02,-0.15,-1.24,51.536801,-0.0108191
2026-06-18T10:52:26.948091,+0.05,-0.18,-1.00,51.536801,-0.0108191
2026-06-18T10:52:27.007692,-0.01,-0.07,-1.14,51.536801,-0.0108191
2026-06-18T10:52:27.102382,+0.14,-0.18,-0.83,51.536801,-0.0108191
2026-06-18T10:52:27.161814,+0.13,-0.30,-0.99,51.536801,-0.0108191
2026-06-18T10:52:27.222813,+0.13,-0.18,-0.82,51.536801,-0.0108191
2026-06-18T10:52:27.281715,-0.07,+0.02,-1.25,51.536801,-0.0108191
2026-06-18T10:52:27.344672,+0.16,-0.13,-0.95,51.536801,-0.0108191
2026-06-18T10:52:27.429130,+0.01,-0.09,-1.13,51.536801,-0.0108191
2026-06-18T10:52:27.490924,+0.18,-0.37,-0.34,51.536801,-0.0108191
2026-06-18T10:52:27.552240,+0.05,-0.26,-0.75,51.536801,-0.0108191
2026-06-18T10:52:27.608488,-0.02,-0.06,-0.95,51.536801,-0.0108191
2026-06-18T10:52:27.670597,+0.15,-0.23,-0.72,51.536801,-0.0108191
2026-06-18T10:52:27.764659,+0.16,-0.16,-0.61,51.536801,-0.0108191
2026-06-18T10:52:27.818126,-0.10,-0.03,-1.07,51.5367646,-0.0108438
2026-06-18T10:52:27.879575,+0.20,-0.24,-0.70,51.5367646,-0.0108438
2026-06-18T10:52:27.971359,+0.07,-0.06,-1.04,51.5367646,-0.0108438
2026-06-18T10:52:28.031366,-0.14,+0.27,-1.60,51.5367646,-0.0108438
2026-06-18T10:52:28.094388,+0.20,-0.45,-1.00,51.5367646,-0.0108438
2026-06-18T10:52:28.151124,+0.18,-0.21,-0.64,51.5367646,-0.0108438
2026-06-18T10:52:28.209878,+0.22,-0.44,-1.17,51.5367646,-0.0108438
2026-06-18T10:52:28.299919,+0.14,-0.33,-1.42,51.5367646,-0.0108438
2026-06-18T10:52:28.362157,+0.03,-0.03,-1.01,51.5367646,-0.0108438
2026-06-18T10:52:28.421981,-0.05,-0.06,-0.94,51.5367646,-0.0108438
2026-06-18T10:52:28.481976,+0.08,-0.30,-1.10,51.5367646,-0.0108438
2026-06-18T10:52:28.539103,+0.16,-0.32,-0.90,51.5367646,-0.0108438
2026-06-18T10:52:28.632415,+0.10,-0.27,-0.84,51.5367646,-0.0108438
2026-06-18T10:52:28.692513,+0.23,-0.47,-0.86,51.5367646,-0.0108438
2026-06-18T10:52:28.752233,+0.06,+0.01,-1.13,51.5367646,-0.0108438
2026-06-18T10:52:28.810680,+0.07,-0.17,-1.05,51.5367322,-0.0108808
2026-06-18T10:52:28.869971,-0.00,-0.13,-1.00,51.5367322,-0.0108808
2026-06-18T10:52:28.960150,+0.13,-0.30,-1.08,51.5367322,-0.0108808
2026-06-18T10:52:29.019574,+0.27,-0.30,-0.77,51.5367322,-0.0108808
2026-06-18T10:52:29.081708,+0.14,-0.28,-1.09,51.5367322,-0.0108808
2026-06-18T10:52:29.142304,+0.14,-0.27,-0.88,51.5367322,-0.0108808
2026-06-18T10:52:29.204427,+0.10,-0.21,-0.98,51.5367322,-0.0108808
2026-06-18T10:52:29.290864,+0.17,-0.34,-0.92,51.5367322,-0.0108808
2026-06-18T10:52:29.354828,+0.01,+0.05,-0.73,51.5367322,-0.0108808
2026-06-18T10:52:29.408620,+0.03,-0.29,-1.01,51.5367322,-0.0108808
2026-06-18T10:52:29.469685,+0.08,-0.29,-1.21,51.5367322,-0.0108808
2026-06-18T10:52:29.533229,+0.06,-0.15,-0.84,51.5367322,-0.0108808
2026-06-18T10:52:29.618355,+0.05,-0.23,-0.99,51.5367322,-0.0108808
2026-06-18T10:52:29.681345,+0.11,-0.24,-1.11,51.5367322,-0.0108808
2026-06-18T10:52:29.741149,-0.04,-0.08,-1.19,51.5367322,-0.0108808
2026-06-18T10:52:29.797941,-0.03,-0.07,-0.99,51.5367,-0.0109215
2026-06-18T10:52:29.859648,-0.01,-0.04,-1.29,51.5367,-0.0109215
2026-06-18T10:52:29.952698,+0.14,-0.18,-0.81,51.5367,-0.0109215
2026-06-18T10:52:30.008720,+0.07,-0.15,-0.84,51.5367,-0.0109215
2026-06-18T10:52:30.072447,+0.18,-0.23,-0.79,51.5367,-0.0109215
2026-06-18T10:52:30.133433,+0.06,-0.16,-1.01,51.5367,-0.0109215
2026-06-18T10:52:30.220382,+0.20,-0.35,-0.73,51.5367,-0.0109215
2026-06-18T10:52:30.279047,+0.18,-0.21,-0.91,51.5367,-0.0109215
2026-06-18T10:52:30.338103,+0.09,-0.21,-0.70,51.5367,-0.0109215
2026-06-18T10:52:30.405616,-0.00,-0.17,-0.99,51.5367,-0.0109215
2026-06-18T10:52:30.463128,+0.11,-0.29,-0.86,51.5367,-0.0109215
2026-06-18T10:52:30.552047,+0.15,-0.25,-0.56,51.5367,-0.0109215
2026-06-18T10:52:30.608878,+0.19,-0.41,-0.87,51.5367,-0.0109215
2026-06-18T10:52:30.701297,+0.14,-0.28,-1.07,51.5367,-0.0109215
2026-06-18T10:52:30.728715,-0.01,-0.12,-1.07,51.5367,-0.0109215
2026-06-18T10:52:30.787166,+0.03,-0.27,-0.98,51.5366678,-0.0109614
2026-06-18T10:52:30.883425,+0.08,-0.24,-0.95,51.5366678,-0.0109614
2026-06-18T10:52:30.939938,+0.15,-0.21,-0.96,51.5366678,-0.0109614
2026-06-18T10:52:31.001234,+0.15,-0.25,-0.93,51.5366678,-0.0109614
2026-06-18T10:52:31.062129,+0.14,-0.15,-0.87,51.5366678,-0.0109614
2026-06-18T10:52:31.120775,+0.08,-0.15,-1.07,51.5366678,-0.0109614
2026-06-18T10:52:31.208372,+0.10,-0.14,-0.81,51.5366678,-0.0109614
2026-06-18T10:52:31.268976,+0.10,-0.17,-1.11,51.5366678,-0.0109614
2026-06-18T10:52:31.332874,+0.11,-0.28,-0.89,51.5366678,-0.0109614
2026-06-18T10:52:31.394381,+0.12,-0.29,-0.93,51.5366678,-0.0109614
2026-06-18T10:52:31.448347,+0.17,-0.28,-0.99,51.5366678,-0.0109614
2026-06-18T10:52:31.539467,+0.18,-0.34,-0.84,51.5366678,-0.0109614
2026-06-18T10:52:31.603464,+0.05,-0.21,-0.94,51.5366678,-0.0109614
2026-06-18T10:52:31.663720,+0.23,-0.32,-0.85,51.5366678,-0.0109614
2026-06-18T10:52:31.721670,+0.20,-0.45,-0.53,51.5366678,-0.0109614
2026-06-18T10:52:31.777531,+0.05,-0.16,-1.02,51.5366678,-0.0109614
2026-06-18T10:52:31.873160,+0.22,-0.29,-0.95,51.5366381,-0.0109988
2026-06-18T10:52:31.927910,-0.02,-0.06,-1.13,51.5366381,-0.0109988
2026-06-18T10:52:31.992651,+0.09,-0.15,-1.02,51.5366381,-0.0109988
2026-06-18T10:52:32.052111,+0.02,-0.17,-1.09,51.5366381,-0.0109988
2026-06-18T10:52:32.139398,+0.17,-0.29,-0.62,51.5366381,-0.0109988
2026-06-18T10:52:32.204656,+0.03,-0.08,-0.82,51.5366381,-0.0109988
2026-06-18T10:52:32.258694,-0.02,-0.20,-0.92,51.5366381,-0.0109988
2026-06-18T10:52:32.320310,+0.10,-0.40,-1.09,51.5366381,-0.0109988
2026-06-18T10:52:32.380318,+0.05,-0.20,-1.03,51.5366381,-0.0109988
2026-06-18T10:52:32.468368,+0.11,-0.34,-0.91,51.5366381,-0.0109988
2026-06-18T10:52:32.529228,-0.01,-0.14,-0.93,51.5366381,-0.0109988
2026-06-18T10:52:32.591487,+0.11,-0.13,-0.83,51.5366381,-0.0109988
2026-06-18T10:52:32.648790,+0.06,-0.17,-1.03,51.5366381,-0.0109988
2026-06-18T10:52:32.709402,+0.12,-0.25,-0.92,51.5366381,-0.0109988
2026-06-18T10:52:32.801392,+0.18,-0.32,-0.85,51.5366083,-0.0110378
2026-06-18T10:52:32.861009,+0.09,-0.21,-1.16,51.5366083,-0.0110378
2026-06-18T10:52:32.918319,+0.22,-0.19,-0.70,51.5366083,-0.0110378
2026-06-18T10:52:32.980523,+0.17,-0.35,-1.03,51.5366083,-0.0110378
2026-06-18T10:52:33.039589,+0.15,-0.39,-0.71,51.5366083,-0.0110378
2026-06-18T10:52:33.129965,+0.00,-0.17,-0.80,51.5366083,-0.0110378
2026-06-18T10:52:33.190203,+0.17,-0.13,-0.90,51.5366083,-0.0110378
2026-06-18T10:52:33.248397,+0.04,-0.08,-0.55,51.5366083,-0.0110378
2026-06-18T10:52:33.311932,+0.02,-0.20,-1.02,51.5366083,-0.0110378
2026-06-18T10:52:33.370898,+0.06,-0.20,-0.99,51.5366083,-0.0110378
2026-06-18T10:52:33.458524,+0.12,-0.32,-0.72,51.5366083,-0.0110378
2026-06-18T10:52:33.518719,+0.07,-0.14,-0.95,51.5366083,-0.0110378
2026-06-18T10:52:33.578118,-0.01,+0.06,-1.27,51.5366083,-0.0110378
2026-06-18T10:52:33.638866,+0.06,-0.16,-1.04,51.5366083,-0.0110378
2026-06-18T10:52:33.697840,+0.15,-0.40,-0.95,51.5366083,-0.0110378
2026-06-18T10:52:33.787265,+0.36,-0.26,-0.38,51.5366083,-0.0110378
2026-06-18T10:52:33.851255,+0.01,-0.21,-1.33,51.5365796,-0.011076
2026-06-18T10:52:33.908492,+0.04,-0.21,-1.17,51.5365796,-0.011076
2026-06-18T10:52:33.971453,+0.15,-0.28,-0.94,51.5365796,-0.011076
2026-06-18T10:52:34.060454,+0.14,-0.32,-0.94,51.5365796,-0.011076
2026-06-18T10:52:34.120032,-0.05,-0.02,-1.18,51.5365796,-0.011076
2026-06-18T10:52:34.183944,+0.14,-0.18,-0.92,51.5365796,-0.011076
2026-06-18T10:52:34.242331,+0.03,-0.19,-1.08,51.5365796,-0.011076
2026-06-18T10:52:34.304034,+0.02,-0.20,-1.09,51.5365796,-0.011076
2026-06-18T10:52:34.389341,+0.10,-0.29,-1.03,51.5365796,-0.011076
2026-06-18T10:52:34.451248,+0.14,-0.36,-0.94,51.5365796,-0.011076
2026-06-18T10:52:34.513938,+0.05,-0.08,-1.31,51.5365796,-0.011076
2026-06-18T10:52:34.573187,+0.15,-0.27,-0.91,51.5365796,-0.011076
2026-06-18T10:52:34.630512,+0.17,-0.28,-0.54,51.5365796,-0.011076
2026-06-18T10:52:34.721955,+0.11,-0.07,-0.92,51.5365796,-0.011076
2026-06-18T10:52:34.778451,+0.11,-0.09,-1.12,51.5365796,-0.011076
2026-06-18T10:52:34.839434,+0.11,-0.20,-0.80,51.5365505,-0.0111171
2026-06-18T10:52:34.899355,+0.21,-0.26,-0.82,51.5365505,-0.0111171
2026-06-18T10:52:34.958580,+0.10,-0.21,-1.06,51.5365505,-0.0111171
2026-06-18T10:52:35.048702,+0.03,-0.16,-1.02,51.5365505,-0.0111171
2026-06-18T10:52:35.109101,+0.19,-0.15,-0.78,51.5365505,-0.0111171
2026-06-18T10:52:35.168933,+0.14,-0.19,-0.82,51.5365505,-0.0111171
2026-06-18T10:52:35.230086,+0.00,-0.15,-1.09,51.5365505,-0.0111171
2026-06-18T10:52:35.288466,+0.10,-0.18,-1.04,51.5365505,-0.0111171
2026-06-18T10:52:35.379974,+0.04,-0.15,-0.92,51.5365505,-0.0111171
2026-06-18T10:52:35.438327,+0.07,-0.30,-1.02,51.5365505,-0.0111171
2026-06-18T10:52:35.498777,+0.04,-0.15,-1.04,51.5365505,-0.0111171
2026-06-18T10:52:35.558874,-0.00,-0.14,-1.02,51.5365505,-0.0111171
2026-06-18T10:52:35.618323,+0.05,-0.20,-0.93,51.5365505,-0.0111171
2026-06-18T10:52:35.709170,+0.11,-0.23,-0.97,51.5365505,-0.0111171
2026-06-18T10:52:35.767530,+0.18,-0.29,-1.01,51.5365505,-0.0111171
2026-06-18T10:52:35.834408,+0.15,-0.29,-0.96,51.5365229,-0.0111609
2026-06-18T10:52:35.887748,+0.07,-0.34,-1.04,51.5365229,-0.0111609
2026-06-18T10:52:35.950034,+0.07,-0.26,-0.98,51.5365229,-0.0111609
2026-06-18T10:52:36.039672,+0.15,-0.19,-0.83,51.5365229,-0.0111609
2026-06-18T10:52:36.098351,-0.06,+0.06,-1.12,51.5365229,-0.0111609
2026-06-18T10:52:36.159376,+0.14,-0.37,-1.06,51.5365229,-0.0111609
2026-06-18T10:52:36.278859,+0.16,-0.24,-0.65,51.5365229,-0.0111609
2026-06-18T10:52:36.308248,+0.06,-0.25,-1.17,51.5365229,-0.0111609
2026-06-18T10:52:36.368844,+0.07,-0.24,-1.06,51.5365229,-0.0111609
2026-06-18T10:52:36.459157,+0.09,-0.09,-1.04,51.5365229,-0.0111609
2026-06-18T10:52:36.487590,+0.22,-0.32,-0.78,51.5365229,-0.0111609
2026-06-18T10:52:36.578648,-0.14,+0.17,-1.05,51.5365229,-0.0111609
2026-06-18T10:52:36.639065,+0.03,-0.14,-1.33,51.5365229,-0.0111609
2026-06-18T10:52:36.701932,+0.17,-0.26,-1.05,51.5365229,-0.0111609
2026-06-18T10:52:36.764078,+0.20,-0.24,-0.68,51.5365229,-0.0111609
2026-06-18T10:52:36.817933,+0.11,-0.27,-1.03,51.5364962,-0.0112083
2026-06-18T10:52:36.909305,+0.08,-0.15,-0.81,51.5364962,-0.0112083
2026-06-18T10:52:36.969404,+0.11,-0.29,-1.06,51.5364962,-0.0112083
2026-06-18T10:52:37.031550,+0.10,-0.10,-0.75,51.5364962,-0.0112083
2026-06-18T10:52:37.088881,-0.05,-0.03,-1.05,51.5364962,-0.0112083
2026-06-18T10:52:37.152261,+0.12,-0.39,-1.02,51.5364962,-0.0112083
2026-06-18T10:52:37.245089,+0.04,-0.18,-1.00,51.5364962,-0.0112083
2026-06-18T10:52:37.298423,+0.18,-0.35,-0.91,51.5364962,-0.0112083
2026-06-18T10:52:37.392933,+0.09,-0.37,-0.82,51.5364962,-0.0112083
2026-06-18T10:52:37.449093,+0.04,-0.26,-1.13,51.5364962,-0.0112083
2026-06-18T10:52:37.480071,+0.08,-0.20,-0.73,51.5364962,-0.0112083
2026-06-18T10:52:37.572592,+0.01,-0.13,-1.06,51.5364962,-0.0112083
2026-06-18T10:52:37.631558,+0.39,-0.60,-0.50,51.5364962,-0.0112083
2026-06-18T10:52:37.689664,+0.01,-0.19,-1.11,51.5364962,-0.0112083
2026-06-18T10:52:37.752104,+0.14,-0.30,-1.09,51.5364962,-0.0112083
2026-06-18T10:52:37.807896,+0.12,-0.08,-0.59,51.5364683,-0.011255
2026-06-18T10:52:37.901445,+0.17,-0.28,-0.83,51.5364683,-0.011255
2026-06-18T10:52:37.958995,-0.07,-0.01,-1.32,51.5364683,-0.011255
2026-06-18T10:52:38.020585,+0.11,-0.12,-1.10,51.5364683,-0.011255
2026-06-18T10:52:38.080776,+0.13,-0.35,-0.98,51.5364683,-0.011255
2026-06-18T10:52:38.141566,+0.00,-0.16,-1.13,51.5364683,-0.011255
2026-06-18T10:52:38.232863,+0.07,-0.21,-0.82,51.5364683,-0.011255
2026-06-18T10:52:38.289283,+0.21,-0.23,-0.87,51.5364683,-0.011255
2026-06-18T10:52:38.352760,+0.14,-0.16,-0.85,51.5364683,-0.011255
2026-06-18T10:52:38.408507,+0.02,-0.10,-1.07,51.5364683,-0.011255
2026-06-18T10:52:38.501839,+0.13,-0.33,-1.01,51.5364683,-0.011255
2026-06-18T10:52:38.559674,+0.07,-0.15,-1.22,51.5364683,-0.011255
2026-06-18T10:52:38.618268,-0.07,-0.19,-1.59,51.5364683,-0.011255
2026-06-18T10:52:38.682147,-0.01,-0.15,-1.02,51.5364683,-0.011255
2026-06-18T10:52:38.740096,+0.10,-0.27,-1.00,51.5364683,-0.011255
2026-06-18T10:52:38.829122,+0.04,-0.11,-0.78,51.5364384,-0.0112997
2026-06-18T10:52:38.891945,+0.13,-0.04,-0.57,51.5364384,-0.0112997
2026-06-18T10:52:38.951386,+0.07,-0.15,-1.13,51.5364384,-0.0112997
2026-06-18T10:52:39.043516,-0.05,-0.17,-1.18,51.5364384,-0.0112997
2026-06-18T10:52:39.135009,+0.05,-0.19,-0.97,51.5364384,-0.0112997
2026-06-18T10:52:39.218948,+0.13,-0.27,-1.03,51.5364384,-0.0112997
2026-06-18T10:52:39.219349,+0.10,-0.11,-0.96,51.5364384,-0.0112997
2026-06-18T10:52:39.308592,+0.03,-0.04,-1.10,51.5364384,-0.0112997
2026-06-18T10:52:39.340152,+0.20,-0.43,-0.89,51.5364384,-0.0112997
2026-06-18T10:52:39.398434,-0.10,+0.04,-0.77,51.5364384,-0.0112997
2026-06-18T10:52:39.491695,+0.13,-0.20,-1.19,51.5364384,-0.0112997
2026-06-18T10:52:39.550105,+0.08,-0.21,-0.99,51.5364384,-0.0112997
2026-06-18T10:52:39.608396,+0.09,-0.18,-0.92,51.5364384,-0.0112997
2026-06-18T10:52:39.703259,-0.13,-0.11,-1.54,51.5364384,-0.0112997
2026-06-18T10:52:39.727498,+0.18,-0.32,-0.55,51.5364384,-0.0112997
2026-06-18T10:52:39.818236,+0.07,-0.03,-0.97,51.5364068,-0.0113439
2026-06-18T10:52:39.878022,+0.10,-0.19,-0.93,51.5364068,-0.0113439
2026-06-18T10:52:39.941410,+0.12,-0.29,-1.00,51.5364068,-0.0113439
2026-06-18T10:52:40.032268,+0.11,-0.28,-0.91,51.5364068,-0.0113439
2026-06-18T10:52:40.057947,+0.26,-0.39,-0.76,51.5364068,-0.0113439
2026-06-18T10:52:40.147939,+0.04,-0.05,-1.11,51.5364068,-0.0113439
2026-06-18T10:52:40.209150,+0.20,-0.35,-0.81,51.5364068,-0.0113439
2026-06-18T10:52:40.272874,+0.04,-0.19,-1.11,51.5364068,-0.0113439
2026-06-18T10:52:40.333550,+0.20,-0.30,-0.83,51.5364068,-0.0113439
2026-06-18T10:52:40.452794,+0.16,-0.18,-0.72,51.5364068,-0.0113439
2026-06-18T10:52:40.478234,+0.15,-0.09,-0.95,51.5364068,-0.0113439
2026-06-18T10:52:40.542651,+0.21,-0.49,-0.90,51.5364068,-0.0113439
2026-06-18T10:52:40.599964,+0.00,-0.11,-1.07,51.5364068,-0.0113439
2026-06-18T10:52:40.660823,+0.04,-0.09,-1.24,51.5364068,-0.0113439
2026-06-18T10:52:40.753597,-0.09,+0.02,-1.09,51.5364068,-0.0113439
2026-06-18T10:52:40.807641,+0.18,-0.39,-0.96,51.5363755,-0.0113927
2026-06-18T10:52:40.871563,+0.04,-0.22,-0.74,51.5363755,-0.0113927
2026-06-18T10:52:40.931530,+0.02,-0.09,-0.87,51.5363755,-0.0113927
2026-06-18T10:52:40.993078,+0.16,-0.37,-0.78,51.5363755,-0.0113927
2026-06-18T10:52:41.082757,+0.11,-0.26,-1.24,51.5363755,-0.0113927
2026-06-18T10:52:41.140830,+0.03,-0.18,-0.95,51.5363755,-0.0113927
2026-06-18T10:52:41.202611,+0.04,-0.13,-1.21,51.5363755,-0.0113927
2026-06-18T10:52:41.259849,+0.17,-0.18,-0.98,51.5363755,-0.0113927
2026-06-18T10:52:41.319539,+0.19,-0.20,-0.85,51.5363755,-0.0113927
2026-06-18T10:52:41.410174,+0.13,-0.17,-0.79,51.5363755,-0.0113927
2026-06-18T10:52:41.472491,+0.08,-0.31,-0.98,51.5363755,-0.0113927
2026-06-18T10:52:41.531082,+0.09,-0.22,-1.13,51.5363755,-0.0113927
2026-06-18T10:52:41.592473,+0.06,-0.07,-0.92,51.5363755,-0.0113927
2026-06-18T10:52:41.650401,+0.26,-0.43,-0.69,51.5363755,-0.0113927
2026-06-18T10:52:41.742236,+0.11,-0.27,-1.00,51.5363755,-0.0113927
2026-06-18T10:52:41.799767,-0.06,-0.17,-1.21,51.5363456,-0.011441
2026-06-18T10:52:41.861082,+0.10,-0.35,-1.08,51.5363456,-0.011441
2026-06-18T10:52:41.921182,+0.21,-0.33,-0.96,51.5363456,-0.011441
2026-06-18T10:52:41.982347,-0.07,-0.12,-1.11,51.5363456,-0.011441
2026-06-18T10:52:42.070940,+0.01,-0.09,-0.84,51.5363456,-0.011441
2026-06-18T10:52:42.128905,+0.16,-0.29,-0.90,51.5363456,-0.011441
2026-06-18T10:52:42.192445,+0.14,-0.20,-1.00,51.5363456,-0.011441
2026-06-18T10:52:42.248303,+0.07,-0.15,-0.99,51.5363456,-0.011441
2026-06-18T10:52:42.340945,+0.05,-0.23,-1.04,51.5363456,-0.011441
2026-06-18T10:52:42.400906,-0.13,-0.12,-1.08,51.5363456,-0.011441
2026-06-18T10:52:42.461685,+0.17,-0.15,-1.00,51.5363456,-0.011441
2026-06-18T10:52:42.523123,+0.05,-0.15,-0.87,51.5363456,-0.011441
2026-06-18T10:52:42.609958,+0.08,-0.19,-1.06,51.5363456,-0.011441
2026-06-18T10:52:42.670410,+0.05,-0.29,-1.04,51.5363456,-0.011441
2026-06-18T10:52:42.733254,+0.04,-0.20,-0.91,51.5363456,-0.011441
2026-06-18T10:52:42.793689,+0.11,-0.23,-0.90,51.536316,-0.011489
2026-06-18T10:52:42.847732,+0.00,-0.11,-0.88,51.536316,-0.011489
2026-06-18T10:52:42.943041,+0.00,-0.05,-1.15,51.536316,-0.011489
2026-06-18T10:52:43.000277,+0.12,-0.21,-0.87,51.536316,-0.011489
2026-06-18T10:52:43.061498,+0.06,-0.12,-1.02,51.536316,-0.011489
2026-06-18T10:52:43.120515,+0.01,-0.02,-0.98,51.536316,-0.011489
2026-06-18T10:52:43.182024,+0.09,-0.30,-0.90,51.536316,-0.011489
2026-06-18T10:52:43.271797,+0.05,-0.24,-0.84,51.536316,-0.011489
2026-06-18T10:52:43.331281,+0.10,-0.07,-1.01,51.536316,-0.011489
2026-06-18T10:52:43.394816,+0.06,-0.09,-1.17,51.536316,-0.011489
2026-06-18T10:52:43.451339,+0.23,-0.28,-0.74,51.536316,-0.011489
2026-06-18T10:52:43.512628,+0.07,-0.23,-0.83,51.536316,-0.011489
2026-06-18T10:52:43.599532,+0.06,-0.19,-0.98,51.536316,-0.011489
2026-06-18T10:52:43.662240,+0.04,-0.08,-1.14,51.536316,-0.011489
2026-06-18T10:52:43.752732,+0.17,-0.20,-0.89,51.536316,-0.011489
2026-06-18T10:52:43.776926,+0.07,-0.15,-0.90,51.536316,-0.011489
2026-06-18T10:52:43.838757,+0.07,-0.19,-0.74,51.5362864,-0.0115362
2026-06-18T10:52:43.932954,+0.01,-0.20,-0.93,51.5362864,-0.0115362
2026-06-18T10:52:43.990623,+0.35,-0.31,-0.84,51.5362864,-0.0115362
2026-06-18T10:52:44.051522,+0.06,-0.18,-1.08,51.5362864,-0.0115362
2026-06-18T10:52:44.113053,+0.03,-0.14,-1.16,51.5362864,-0.0115362
2026-06-18T10:52:44.174028,-0.05,-0.21,-1.54,51.5362864,-0.0115362
2026-06-18T10:52:44.262808,-0.03,-0.00,-1.02,51.5362864,-0.0115362
2026-06-18T10:52:44.319837,+0.14,-0.23,-1.12,51.5362864,-0.0115362
2026-06-18T10:52:44.383120,+0.08,-0.20,-0.56,51.5362864,-0.0115362
2026-06-18T10:52:44.440100,-0.03,-0.02,-0.98,51.5362864,-0.0115362
2026-06-18T10:52:44.532475,+0.08,-0.29,-1.05,51.5362864,-0.0115362
2026-06-18T10:52:44.590318,-0.05,-0.05,-1.19,51.5362864,-0.0115362
2026-06-18T10:52:44.651306,+0.07,-0.11,-0.51,51.5362864,-0.0115362
2026-06-18T10:52:44.713086,+0.24,-0.28,-1.21,51.5362864,-0.0115362
2026-06-18T10:52:44.768430,-0.00,+0.09,-1.16,51.5362864,-0.0115362
2026-06-18T10:52:44.860976,+0.15,-0.31,-0.95,51.536257,-0.011582
2026-06-18T10:52:44.919520,+0.29,-0.50,-0.90,51.536257,-0.011582
2026-06-18T10:52:44.982624,+0.16,-0.26,-1.33,51.536257,-0.011582
2026-06-18T10:52:45.038807,+0.11,-0.21,-1.23,51.536257,-0.011582
2026-06-18T10:52:45.098771,+0.29,-0.46,-0.42,51.536257,-0.011582
2026-06-18T10:52:45.190580,+0.08,-0.10,-1.01,51.536257,-0.011582
2026-06-18T10:52:45.252483,+0.10,-0.27,-0.72,51.536257,-0.011582
2026-06-18T10:52:45.310193,+0.04,-0.19,-1.06,51.536257,-0.011582
2026-06-18T10:52:45.371784,+0.10,-0.30,-0.83,51.536257,-0.011582
2026-06-18T10:52:45.430808,+0.16,-0.37,-0.68,51.536257,-0.011582
2026-06-18T10:52:45.524128,+0.13,-0.29,-0.92,51.536257,-0.011582
2026-06-18T10:52:45.581110,+0.07,-0.13,-0.91,51.536257,-0.011582
2026-06-18T10:52:45.641446,+0.02,-0.25,-1.16,51.536257,-0.011582
2026-06-18T10:52:45.699226,+0.01,-0.17,-1.02,51.536257,-0.011582
2026-06-18T10:52:45.764142,+0.18,-0.32,-0.96,51.536257,-0.011582
2026-06-18T10:52:45.848489,+0.04,-0.15,-0.98,51.5362303,-0.0116289
2026-06-18T10:52:45.908732,+0.09,-0.22,-0.97,51.5362303,-0.0116289
2026-06-18T10:52:45.971385,+0.15,-0.29,-0.99,51.5362303,-0.0116289
2026-06-18T10:52:46.034931,-0.10,-0.05,-1.27,51.5362303,-0.0116289
2026-06-18T10:52:46.089545,+0.15,-0.24,-0.93,51.5362303,-0.0116289
2026-06-18T10:52:46.183194,+0.30,-0.40,-1.05,51.5362303,-0.0116289
2026-06-18T10:52:46.238943,+0.12,-0.28,-0.80,51.5362303,-0.0116289
2026-06-18T10:52:46.302483,+0.09,-0.10,-0.78,51.5362303,-0.0116289
2026-06-18T10:52:46.359592,+0.09,-0.12,-0.76,51.5362303,-0.0116289
2026-06-18T10:52:46.451192,+0.15,-0.23,-0.80,51.5362303,-0.0116289
2026-06-18T10:52:46.510756,+0.22,-0.33,-0.61,51.5362303,-0.0116289
2026-06-18T10:52:46.571214,+0.10,-0.26,-1.08,51.5362303,-0.0116289
2026-06-18T10:52:46.633266,+0.07,-0.22,-1.21,51.5362303,-0.0116289
2026-06-18T10:52:46.688854,+0.19,-0.47,-0.95,51.5362303,-0.0116289
2026-06-18T10:52:46.778519,+0.12,-0.23,-0.70,51.536212,-0.0116815
2026-06-18T10:52:46.841075,-0.22,+0.02,-1.82,51.536212,-0.0116815
2026-06-18T10:52:46.898284,+0.11,-0.15,-0.98,51.536212,-0.0116815
2026-06-18T10:52:46.960192,+0.12,-0.32,-0.74,51.536212,-0.0116815
2026-06-18T10:52:47.030053,+0.02,-0.21,-1.08,51.536212,-0.0116815
2026-06-18T10:52:47.108779,+0.18,-0.22,-1.32,51.536212,-0.0116815
2026-06-18T10:52:47.169154,+0.01,-0.12,-1.01,51.536212,-0.0116815
2026-06-18T10:52:47.229162,+0.28,-0.35,-0.67,51.536212,-0.0116815
2026-06-18T10:52:47.288342,+0.08,-0.28,-1.07,51.536212,-0.0116815
2026-06-18T10:52:47.350240,+0.00,-0.11,-1.04,51.536212,-0.0116815
2026-06-18T10:52:47.442567,+0.13,-0.32,-1.04,51.536212,-0.0116815
2026-06-18T10:52:47.502368,+0.22,-0.29,-0.86,51.536212,-0.0116815
2026-06-18T10:52:47.563332,+0.15,-0.31,-0.93,51.536212,-0.0116815
2026-06-18T10:52:47.619497,+0.06,-0.21,-0.89,51.536212,-0.0116815
2026-06-18T10:52:47.680915,-0.02,+0.00,-1.02,51.536212,-0.0116815
2026-06-18T10:52:47.769393,+0.26,-0.45,-0.81,51.536212,-0.0116815
2026-06-18T10:52:47.826991,+0.08,-0.28,-1.00,51.5362079,-0.0117383
2026-06-18T10:52:47.888507,+0.14,-0.19,-0.83,51.5362079,-0.0117383
2026-06-18T10:52:47.981328,+0.11,-0.21,-0.91,51.5362079,-0.0117383
2026-06-18T10:52:48.040659,+0.00,-0.19,-1.32,51.5362079,-0.0117383
2026-06-18T10:52:48.104597,+0.06,-0.28,-1.14,51.5362079,-0.0117383
2026-06-18T10:52:48.159841,+0.06,-0.03,-1.01,51.5362079,-0.0117383
2026-06-18T10:52:48.220061,+0.11,-0.35,-0.79,51.5362079,-0.0117383
2026-06-18T10:52:48.282477,+0.13,-0.30,-0.80,51.5362079,-0.0117383
2026-06-18T10:52:48.340383,+0.04,-0.13,-1.10,51.5362079,-0.0117383
2026-06-18T10:52:48.430624,+0.16,-0.31,-0.91,51.5362079,-0.0117383
2026-06-18T10:52:48.489390,+0.21,-0.30,-0.76,51.5362079,-0.0117383
2026-06-18T10:52:48.552827,+0.02,-0.10,-1.00,51.5362079,-0.0117383
2026-06-18T10:52:48.610559,+0.01,-0.18,-1.11,51.5362079,-0.0117383
2026-06-18T10:52:48.703595,+0.06,-0.17,-0.96,51.5362079,-0.0117383
2026-06-18T10:52:48.771146,+0.19,-0.37,-1.00,51.5362079,-0.0117383
2026-06-18T10:52:48.818238,+0.25,-0.15,-0.65,51.5362172,-0.0117963
2026-06-18T10:52:48.881090,-0.03,-0.02,-1.27,51.5362172,-0.0117963
2026-06-18T10:52:48.940377,+0.23,-0.39,-1.06,51.5362172,-0.0117963
2026-06-18T10:52:49.032605,+0.11,-0.22,-0.70,51.5362172,-0.0117963
2026-06-18T10:52:49.089401,-0.02,+0.02,-1.24,51.5362172,-0.0117963
2026-06-18T10:52:49.153476,-0.05,-0.03,-0.86,51.5362172,-0.0117963
2026-06-18T10:52:49.212173,+0.10,-0.23,-0.70,51.5362172,-0.0117963
2026-06-18T10:52:49.273801,+0.03,-0.20,-0.86,51.5362172,-0.0117963
2026-06-18T10:52:49.359909,-0.03,-0.15,-1.08,51.5362172,-0.0117963
2026-06-18T10:52:49.419542,-0.09,-0.04,-1.20,51.5362172,-0.0117963
2026-06-18T10:52:49.482716,+0.12,-0.22,-0.90,51.5362172,-0.0117963
2026-06-18T10:52:49.539109,+0.09,-0.16,-1.10,51.5362172,-0.0117963
2026-06-18T10:52:49.603079,+0.13,-0.13,-0.79,51.5362172,-0.0117963
2026-06-18T10:52:49.692953,+0.07,-0.22,-1.16,51.5362172,-0.0117963
2026-06-18T10:52:49.750290,+0.21,-0.21,-1.10,51.5362172,-0.0117963
2026-06-18T10:52:49.807800,+0.18,-0.45,-0.90,51.536234,-0.0118509
2026-06-18T10:52:49.873822,+0.05,-0.24,-0.95,51.536234,-0.0118509
2026-06-18T10:52:49.933204,-0.00,-0.17,-1.13,51.536234,-0.0118509
2026-06-18T10:52:50.020484,+0.00,-0.15,-1.12,51.536234,-0.0118509
2026-06-18T10:52:50.082436,+0.01,-0.10,-0.82,51.536234,-0.0118509
2026-06-18T10:52:50.143559,+0.14,-0.19,-0.82,51.536234,-0.0118509
2026-06-18T10:52:50.199195,+0.20,-0.27,-0.76,51.536234,-0.0118509
2026-06-18T10:52:50.262983,+0.12,-0.18,-0.92,51.536234,-0.0118509
2026-06-18T10:52:50.348254,+0.22,-0.33,-0.75,51.536234,-0.0118509
2026-06-18T10:52:50.410337,+0.02,-0.15,-1.07,51.536234,-0.0118509
2026-06-18T10:52:50.473443,+0.06,-0.19,-1.01,51.536234,-0.0118509
2026-06-18T10:52:50.559018,+0.07,-0.20,-1.23,51.536234,-0.0118509
2026-06-18T10:52:50.619236,+0.17,-0.21,-0.89,51.536234,-0.0118509
2026-06-18T10:52:50.681122,+0.01,-0.39,-1.14,51.536234,-0.0118509
2026-06-18T10:52:50.742499,+0.07,-0.14,-1.08,51.536234,-0.0118509
2026-06-18T10:52:50.800734,+0.17,-0.37,-1.12,51.5362565,-0.0118998
2026-06-18T10:52:50.890008,+0.13,-0.16,-0.75,51.5362565,-0.0118998
2026-06-18T10:52:50.950906,+0.03,-0.09,-0.91,51.5362565,-0.0118998
2026-06-18T10:52:51.011023,+0.08,-0.28,-1.03,51.5362565,-0.0118998
2026-06-18T10:52:51.069392,-0.09,-0.02,-0.99,51.5362565,-0.0118998
2026-06-18T10:52:51.130523,+0.21,-0.21,-0.72,51.5362565,-0.0118998
2026-06-18T10:52:51.221834,+0.06,-0.03,-1.04,51.5362565,-0.0118998
2026-06-18T10:52:51.279057,+0.09,-0.19,-1.22,51.5362565,-0.0118998
2026-06-18T10:52:51.342350,+0.15,-0.28,-0.88,51.5362565,-0.0118998
2026-06-18T10:52:51.403973,+0.23,-0.35,-0.89,51.5362565,-0.0118998
2026-06-18T10:52:51.462811,+0.14,-0.32,-0.98,51.5362565,-0.0118998
2026-06-18T10:52:51.549244,+0.28,-0.42,-0.69,51.5362565,-0.0118998
2026-06-18T10:52:51.610855,+0.01,-0.14,-1.01,51.5362565,-0.0118998
2026-06-18T10:52:51.669917,-0.18,-0.04,-1.25,51.5362565,-0.0118998
2026-06-18T10:52:51.730401,+0.31,-0.32,-0.36,51.5362565,-0.0118998
2026-06-18T10:52:51.819290,+0.05,-0.17,-1.06,51.536284,-0.0119427
2026-06-18T10:52:51.882796,+0.09,-0.20,-0.99,51.536284,-0.0119427
2026-06-18T10:52:51.939162,+0.17,-0.17,-0.78,51.536284,-0.0119427
2026-06-18T10:52:52.001442,+0.33,-0.45,-0.92,51.536284,-0.0119427
2026-06-18T10:52:52.060523,+0.02,-0.16,-0.90,51.536284,-0.0119427
2026-06-18T10:52:52.120038,+0.02,+0.00,-0.75,51.536284,-0.0119427
2026-06-18T10:52:52.212054,+0.28,-0.23,-0.90,51.536284,-0.0119427
2026-06-18T10:52:52.273814,+0.19,-0.27,-0.90,51.536284,-0.0119427
2026-06-18T10:52:52.329945,+0.04,-0.21,-0.97,51.536284,-0.0119427
2026-06-18T10:52:52.394377,+0.21,-0.37,-0.77,51.536284,-0.0119427
2026-06-18T10:52:52.453671,+0.10,-0.24,-0.81,51.536284,-0.0119427
2026-06-18T10:52:52.540350,+0.15,-0.25,-0.87,51.536284,-0.0119427
2026-06-18T10:52:52.599544,+0.03,-0.07,-0.87,51.536284,-0.0119427
2026-06-18T10:52:52.661966,+0.08,-0.28,-1.17,51.536284,-0.0119427
2026-06-18T10:52:52.723756,+0.14,-0.20,-0.92,51.536284,-0.0119427
2026-06-18T10:52:52.807592,-0.07,-0.07,-1.18,51.5363171,-0.0119787
2026-06-18T10:52:52.868458,+0.31,-0.24,-0.60,51.5363171,-0.0119787
2026-06-18T10:52:52.934455,-0.07,-0.02,-1.12,51.5363171,-0.0119787
2026-06-18T10:52:52.990834,+0.19,-0.28,-0.70,51.5363171,-0.0119787
2026-06-18T10:52:53.050405,+0.20,-0.34,-0.73,51.5363171,-0.0119787
2026-06-18T10:52:53.141238,+0.03,+0.03,-0.96,51.5363171,-0.0119787
2026-06-18T10:52:53.200683,+0.02,-0.09,-1.12,51.5363171,-0.0119787
2026-06-18T10:52:53.258453,+0.09,-0.12,-1.16,51.5363171,-0.0119787
2026-06-18T10:52:53.322306,+0.11,-0.24,-0.91,51.5363171,-0.0119787
2026-06-18T10:52:53.379972,+0.06,-0.18,-0.99,51.5363171,-0.0119787
2026-06-18T10:52:53.471623,+0.11,-0.22,-0.80,51.5363171,-0.0119787
2026-06-18T10:52:53.529636,-0.01,+0.02,-0.81,51.5363171,-0.0119787
2026-06-18T10:52:53.594119,+0.07,-0.23,-0.87,51.5363171,-0.0119787
2026-06-18T10:52:53.649992,+0.04,-0.25,-0.95,51.5363171,-0.0119787
2026-06-18T10:52:53.712255,+0.20,-0.25,-0.82,51.5363171,-0.0119787
2026-06-18T10:52:53.799156,+0.14,-0.17,-1.06,51.5363537,-0.0120083
2026-06-18T10:52:53.860436,-0.03,-0.15,-1.38,51.5363537,-0.0120083
2026-06-18T10:52:53.920228,+0.07,-0.24,-1.04,51.5363537,-0.0120083
2026-06-18T10:52:53.978603,+0.17,-0.30,-1.02,51.5363537,-0.0120083
2026-06-18T10:52:54.040584,+0.06,-0.13,-0.78,51.5363537,-0.0120083
2026-06-18T10:52:54.130359,+0.12,-0.04,-0.99,51.5363537,-0.0120083
2026-06-18T10:52:54.190993,-0.01,-0.17,-1.24,51.5363537,-0.0120083
2026-06-18T10:52:54.252669,+0.10,-0.33,-1.02,51.5363537,-0.0120083
2026-06-18T10:52:54.343847,+0.14,-0.28,-0.95,51.5363537,-0.0120083
2026-06-18T10:52:54.368077,+0.07,-0.25,-1.11,51.5363537,-0.0120083
2026-06-18T10:52:54.462166,+0.21,-0.19,-0.90,51.5363537,-0.0120083
2026-06-18T10:52:54.519966,+0.06,-0.23,-0.65,51.5363537,-0.0120083
2026-06-18T10:52:54.581263,+0.02,-0.08,-1.02,51.5363537,-0.0120083
2026-06-18T10:52:54.642516,+0.20,-0.36,-0.98,51.5363537,-0.0120083
2026-06-18T10:52:54.732123,+0.19,-0.21,-0.91,51.5363537,-0.0120083
2026-06-18T10:52:54.787174,+0.35,-0.46,-0.50,51.5363933,-0.0120311
2026-06-18T10:52:54.848490,+0.02,-0.14,-0.98,51.5363933,-0.0120311
2026-06-18T10:52:54.915178,+0.09,-0.23,-1.10,51.5363933,-0.0120311
2026-06-18T10:52:54.973978,+0.25,-0.21,-0.48,51.5363933,-0.0120311
2026-06-18T10:52:55.062454,+0.23,-0.44,-0.71,51.5363933,-0.0120311
2026-06-18T10:52:55.121390,+0.11,-0.28,-0.77,51.5363933,-0.0120311
2026-06-18T10:52:55.182052,+0.26,-0.50,-1.38,51.5363933,-0.0120311
2026-06-18T10:52:55.242887,+0.22,-0.49,-0.92,51.5363933,-0.0120311
2026-06-18T10:52:55.304874,+0.09,-0.28,-1.30,51.5363933,-0.0120311
2026-06-18T10:52:55.392934,+0.00,-0.13,-0.86,51.5363933,-0.0120311
2026-06-18T10:52:55.455175,-0.05,-0.05,-0.98,51.5363933,-0.0120311
2026-06-18T10:52:55.510905,+0.15,-0.25,-0.98,51.5363933,-0.0120311
2026-06-18T10:52:55.572403,+0.20,-0.31,-0.85,51.5363933,-0.0120311
2026-06-18T10:52:55.629807,+0.22,-0.27,-0.86,51.5363933,-0.0120311
2026-06-18T10:52:55.722994,-0.02,+0.06,-1.04,51.5363933,-0.0120311
2026-06-18T10:52:55.777929,+0.15,-0.36,-0.88,51.5363933,-0.0120311
2026-06-18T10:52:55.839280,+0.07,-0.20,-1.09,51.5364349,-0.0120474
2026-06-18T10:52:55.900577,+0.01,-0.11,-1.30,51.5364349,-0.0120474
2026-06-18T10:52:55.960781,+0.07,-0.31,-0.73,51.5364349,-0.0120474
2026-06-18T10:52:56.052636,-0.05,-0.10,-1.20,51.5364349,-0.0120474
2026-06-18T10:52:56.109176,+0.17,-0.39,-0.72,51.5364349,-0.0120474
2026-06-18T10:52:56.172599,+0.24,-0.26,-0.87,51.5364349,-0.0120474
2026-06-18T10:52:56.230145,+0.22,-0.34,-0.79,51.5364349,-0.0120474
2026-06-18T10:52:56.293960,+0.02,-0.16,-0.93,51.5364349,-0.0120474
2026-06-18T10:52:56.380441,+0.11,-0.20,-1.18,51.5364349,-0.0120474
2026-06-18T10:52:56.441317,+0.25,-0.36,-0.86,51.5364349,-0.0120474
2026-06-18T10:52:56.502934,-0.15,+0.08,-1.58,51.5364349,-0.0120474
2026-06-18T10:52:56.558836,+0.11,-0.26,-0.64,51.5364349,-0.0120474
2026-06-18T10:52:56.648550,+0.22,-0.33,-0.88,51.5364349,-0.0120474
2026-06-18T10:52:56.711708,+0.15,-0.26,-0.41,51.5364349,-0.0120474
2026-06-18T10:52:56.767795,+0.04,-0.06,-1.09,51.5364349,-0.0120474
2026-06-18T10:52:56.830876,-0.02,-0.10,-0.94,51.5364775,-0.0120596
2026-06-18T10:52:56.918796,+0.18,-0.23,-0.78,51.5364775,-0.0120596
2026-06-18T10:52:56.978476,-0.10,-0.01,-1.04,51.5364775,-0.0120596
2026-06-18T10:52:57.039558,+0.06,-0.21,-1.08,51.5364775,-0.0120596
2026-06-18T10:52:57.102998,+0.29,-0.38,-0.91,51.5364775,-0.0120596
2026-06-18T10:52:57.162011,+0.16,-0.31,-0.89,51.5364775,-0.0120596
2026-06-18T10:52:57.254584,-0.02,-0.09,-0.79,51.5364775,-0.0120596
2026-06-18T10:52:57.312997,+0.27,-0.27,-0.89,51.5364775,-0.0120596
2026-06-18T10:52:57.371615,+0.47,-0.36,-0.81,51.5364775,-0.0120596
2026-06-18T10:52:57.431024,-0.33,+0.19,-1.66,51.5364775,-0.0120596
2026-06-18T10:52:57.492069,+0.04,-0.25,-1.25,51.5364775,-0.0120596
2026-06-18T10:52:57.582253,+0.17,-0.29,-0.90,51.5364775,-0.0120596
2026-06-18T10:52:57.641527,+0.08,-0.08,-0.62,51.5364775,-0.0120596
2026-06-18T10:52:57.701107,+0.02,-0.03,-0.80,51.5364775,-0.0120596
2026-06-18T10:52:57.762689,-0.01,-0.08,-1.11,51.5364775,-0.0120596
2026-06-18T10:52:57.817992,+0.14,-0.35,-1.22,51.5365203,-0.0120734
2026-06-18T10:52:57.908479,+0.12,-0.23,-0.86,51.5365203,-0.0120734
2026-06-18T10:52:57.976444,+0.11,-0.32,-0.87,51.5365203,-0.0120734
2026-06-18T10:52:58.031321,-0.15,+0.13,-1.23,51.5365203,-0.0120734
2026-06-18T10:52:58.094145,+0.05,-0.21,-0.95,51.5365203,-0.0120734
2026-06-18T10:52:58.151306,+0.08,-0.14,-0.88,51.5365203,-0.0120734
2026-06-18T10:52:58.242734,+0.07,-0.19,-0.93,51.5365203,-0.0120734
2026-06-18T10:52:58.298998,-0.02,-0.13,-1.36,51.5365203,-0.0120734
2026-06-18T10:52:58.362234,+0.17,-0.43,-1.00,51.5365203,-0.0120734
2026-06-18T10:52:58.421296,+0.13,-0.29,-0.93,51.5365203,-0.0120734
2026-06-18T10:52:58.483577,+0.14,-0.21,-0.61,51.5365203,-0.0120734
2026-06-18T10:52:58.572486,+0.02,+0.00,-1.10,51.5365203,-0.0120734
2026-06-18T10:52:58.630856,-0.03,-0.22,-1.45,51.5365203,-0.0120734
2026-06-18T10:52:58.691720,+0.29,-0.42,-0.77,51.5365203,-0.0120734
2026-06-18T10:52:58.751524,-0.06,-0.17,-1.44,51.5365203,-0.0120734
2026-06-18T10:52:58.838866,+0.16,-0.15,-0.83,51.536562,-0.0120871
2026-06-18T10:52:58.904286,+0.00,-0.06,-1.08,51.536562,-0.0120871
2026-06-18T10:52:58.960201,-0.20,+0.06,-1.12,51.536562,-0.0120871
2026-06-18T10:52:59.019605,+0.25,-0.52,-0.87,51.536562,-0.0120871
2026-06-18T10:52:59.081693,+0.12,-0.09,-1.10,51.536562,-0.0120871
2026-06-18T10:52:59.170067,+0.21,-0.24,-0.69,51.536562,-0.0120871
2026-06-18T10:52:59.230082,+0.29,-0.38,-0.66,51.536562,-0.0120871
2026-06-18T10:52:59.292392,+0.10,-0.35,-1.03,51.536562,-0.0120871
2026-06-18T10:52:59.352965,-0.23,+0.06,-1.53,51.536562,-0.0120871
2026-06-18T10:52:59.410430,+0.23,-0.51,-0.78,51.536562,-0.0120871
2026-06-18T10:52:59.501290,+0.10,-0.22,-1.01,51.536562,-0.0120871
2026-06-18T10:52:59.559296,-0.05,-0.07,-1.20,51.536562,-0.0120871
2026-06-18T10:52:59.620811,+0.14,-0.25,-0.78,51.536562,-0.0120871
2026-06-18T10:52:59.712374,-0.11,+0.22,-1.27,51.536562,-0.0120871
2026-06-18T10:52:59.738387,+0.06,-0.27,-0.83,51.536562,-0.0120871
2026-06-18T10:52:59.829832,+0.11,-0.30,-1.08,51.5366042,-0.0120964
2026-06-18T10:52:59.889729,+0.05,-0.16,-0.88,51.5366042,-0.0120964
2026-06-18T10:52:59.950703,+0.12,-0.14,-0.80,51.5366042,-0.0120964
2026-06-18T10:53:00.009707,+0.18,-0.22,-1.03,51.5366042,-0.0120964
2026-06-18T10:53:00.071818,+0.15,-0.14,-0.95,51.5366042,-0.0120964
2026-06-18T10:53:00.159677,+0.14,-0.25,-1.03,51.5366042,-0.0120964
2026-06-18T10:53:00.220137,+0.07,-0.31,-0.90,51.5366042,-0.0120964
2026-06-18T10:53:00.281791,+0.06,-0.18,-0.97,51.5366042,-0.0120964
2026-06-18T10:53:00.339152,+0.18,-0.26,-0.98,51.5366042,-0.0120964
2026-06-18T10:53:00.401317,+0.08,-0.25,-1.10,51.5366042,-0.0120964
2026-06-18T10:53:00.517413,+0.03,-0.20,-0.99,51.5366042,-0.0120964
2026-06-18T10:53:00.551036,+0.05,-0.26,-1.02,51.5366042,-0.0120964
2026-06-18T10:53:00.612926,+0.11,-0.22,-0.98,51.5366042,-0.0120964
2026-06-18T10:53:00.670362,+0.08,-0.13,-0.96,51.5366042,-0.0120964
2026-06-18T10:53:00.765103,+0.05,-0.20,-0.93,51.5366042,-0.0120964
2026-06-18T10:53:00.819231,+0.08,-0.06,-0.91,51.5366449,-0.0121058
2026-06-18T10:53:00.882415,+0.21,-0.19,-0.78,51.5366449,-0.0121058
2026-06-18T10:53:00.939601,+0.20,-0.19,-0.99,51.5366449,-0.0121058
2026-06-18T10:53:01.003487,+0.11,-0.21,-0.99,51.5366449,-0.0121058
2026-06-18T10:53:01.092519,+0.15,-0.26,-0.92,51.5366449,-0.0121058
2026-06-18T10:53:01.151847,+0.17,-0.34,-0.77,51.5366449,-0.0121058
2026-06-18T10:53:01.212843,+0.04,-0.14,-1.11,51.5366449,-0.0121058
2026-06-18T10:53:01.270792,+0.07,-0.04,-1.02,51.5366449,-0.0121058
2026-06-18T10:53:01.328855,+0.11,-0.29,-1.07,51.5366449,-0.0121058
2026-06-18T10:53:01.420248,+0.09,-0.30,-1.11,51.5366449,-0.0121058
2026-06-18T10:53:01.478971,+0.05,-0.21,-0.91,51.5366449,-0.0121058
2026-06-18T10:53:01.545600,+0.23,-0.31,-0.78,51.5366449,-0.0121058
2026-06-18T10:53:01.600641,-0.07,-0.08,-1.05,51.5366449,-0.0121058
2026-06-18T10:53:01.662710,-0.04,+0.01,-0.97,51.5366449,-0.0121058
2026-06-18T10:53:01.751157,+0.07,-0.22,-1.05,51.5366449,-0.0121058
2026-06-18T10:53:01.807364,+0.25,-0.37,-0.79,51.5366849,-0.0121149
2026-06-18T10:53:01.870019,+0.00,-0.06,-1.33,51.5366849,-0.0121149
2026-06-18T10:53:01.929722,+0.11,-0.18,-0.96,51.5366849,-0.0121149
2026-06-18T10:53:01.990756,+0.03,-0.29,-1.11,51.5366849,-0.0121149
2026-06-18T10:53:02.080404,+0.04,-0.10,-0.87,51.5366849,-0.0121149
2026-06-18T10:53:02.141267,+0.08,-0.08,-0.85,51.5366849,-0.0121149
2026-06-18T10:53:02.205081,+0.08,-0.07,-0.79,51.5366849,-0.0121149
2026-06-18T10:53:02.259094,+0.03,-0.23,-1.02,51.5366849,-0.0121149
2026-06-18T10:53:02.320912,+0.05,-0.19,-1.06,51.5366849,-0.0121149
2026-06-18T10:53:02.411249,+0.08,-0.18,-1.00,51.5366849,-0.0121149
2026-06-18T10:53:02.469364,+0.21,-0.34,-0.89,51.5366849,-0.0121149
2026-06-18T10:53:02.533741,+0.08,-0.15,-0.98,51.5366849,-0.0121149
2026-06-18T10:53:02.592671,-0.01,-0.11,-0.95,51.5366849,-0.0121149
2026-06-18T10:53:02.648786,+0.17,-0.25,-0.84,51.5366849,-0.0121149
2026-06-18T10:53:02.740787,+0.17,-0.23,-0.90,51.5366849,-0.0121149
2026-06-18T10:53:02.798031,+0.18,-0.20,-1.12,51.5367249,-0.0121238
2026-06-18T10:53:02.859052,+0.01,-0.16,-1.25,51.5367249,-0.0121238
2026-06-18T10:53:02.950536,+0.31,-0.31,-0.85,51.5367249,-0.0121238
2026-06-18T10:53:03.008318,+0.07,-0.23,-0.91,51.5367249,-0.0121238
2026-06-18T10:53:03.070083,-0.09,+0.03,-1.07,51.5367249,-0.0121238
2026-06-18T10:53:03.133469,+0.13,-0.27,-0.80,51.5367249,-0.0121238
2026-06-18T10:53:03.192707,+0.13,-0.28,-0.94,51.5367249,-0.0121238
2026-06-18T10:53:03.282235,-0.07,-0.09,-1.21,51.5367249,-0.0121238
2026-06-18T10:53:03.340958,-0.03,-0.22,-1.17,51.5367249,-0.0121238
2026-06-18T10:53:03.403120,+0.16,-0.36,-0.78,51.5367249,-0.0121238
2026-06-18T10:53:03.458981,+0.09,-0.15,-0.87,51.5367249,-0.0121238
2026-06-18T10:53:03.524396,-0.05,-0.07,-1.09,51.5367249,-0.0121238
2026-06-18T10:53:03.610241,+0.27,-0.43,-1.19,51.5367249,-0.0121238
2026-06-18T10:53:03.669458,+0.15,-0.32,-1.02,51.5367249,-0.0121238
2026-06-18T10:53:03.732224,+0.03,-0.05,-1.16,51.5367249,-0.0121238
2026-06-18T10:53:03.788444,+0.29,-0.26,-1.15,51.536763,-0.0121402
2026-06-18T10:53:03.849223,+0.08,-0.02,-1.12,51.536763,-0.0121402
2026-06-18T10:53:03.938836,-0.05,-0.14,-0.82,51.536763,-0.0121402
2026-06-18T10:53:04.004547,+0.19,-0.30,-1.35,51.536763,-0.0121402
2026-06-18T10:53:04.057912,+0.14,-0.16,-1.02,51.536763,-0.0121402
2026-06-18T10:53:04.121042,+0.01,-0.27,-1.02,51.536763,-0.0121402
2026-06-18T10:53:04.183379,+0.06,-0.20,-0.99,51.536763,-0.0121402
2026-06-18T10:53:04.271285,+0.19,-0.34,-0.88,51.536763,-0.0121402
2026-06-18T10:53:04.328134,+0.13,-0.32,-0.74,51.536763,-0.0121402
2026-06-18T10:53:04.392538,+0.11,-0.21,-1.13,51.536763,-0.0121402
2026-06-18T10:53:04.452470,+0.01,-0.07,-0.99,51.536763,-0.0121402
2026-06-18T10:53:04.511647,+0.15,-0.36,-1.04,51.536763,-0.0121402
2026-06-18T10:53:04.598632,+0.17,-0.24,-1.13,51.536763,-0.0121402
2026-06-18T10:53:04.661066,+0.10,-0.17,-0.90,51.536763,-0.0121402
2026-06-18T10:53:04.721669,+0.17,-0.18,-1.03,51.536763,-0.0121402
2026-06-18T10:53:04.778502,+0.17,-0.20,-0.79,51.536763,-0.0121402
2026-06-18T10:53:04.842430,+0.11,-0.28,-1.17,51.5367997,-0.0121577
2026-06-18T10:53:04.929955,+0.05,-0.18,-0.93,51.5367997,-0.0121577
2026-06-18T10:53:04.989851,+0.13,-0.26,-0.95,51.5367997,-0.0121577
2026-06-18T10:53:05.052197,+0.08,-0.20,-1.08,51.5367997,-0.0121577
2026-06-18T10:53:05.112646,+0.04,-0.18,-1.02,51.5367997,-0.0121577
2026-06-18T10:53:05.201685,+0.19,-0.29,-0.76,51.5367997,-0.0121577
2026-06-18T10:53:05.259234,+0.13,-0.24,-0.79,51.5367997,-0.0121577
2026-06-18T10:53:05.321440,+0.13,-0.34,-0.82,51.5367997,-0.0121577
2026-06-18T10:53:05.382059,+0.13,-0.20,-0.88,51.5367997,-0.0121577
2026-06-18T10:53:05.441967,+0.09,-0.14,-0.86,51.5367997,-0.0121577
2026-06-18T10:53:05.531608,+0.08,-0.20,-1.17,51.5367997,-0.0121577
2026-06-18T10:53:05.588929,+0.11,-0.26,-0.84,51.5367997,-0.0121577
2026-06-18T10:53:05.650803,+0.13,-0.22,-1.03,51.5367997,-0.0121577
2026-06-18T10:53:05.711753,+0.12,-0.19,-0.92,51.5367997,-0.0121577
2026-06-18T10:53:05.768242,+0.16,-0.21,-1.02,51.5367997,-0.0121577
2026-06-18T10:53:05.860044,+0.15,-0.20,-0.88,51.5368377,-0.0121713
2026-06-18T10:53:05.920226,+0.13,-0.35,-0.96,51.5368377,-0.0121713
2026-06-18T10:53:05.978508,-0.06,-0.06,-1.03,51.5368377,-0.0121713
2026-06-18T10:53:06.040974,+0.03,-0.18,-0.85,51.5368377,-0.0121713
2026-06-18T10:53:06.101063,-0.02,-0.25,-0.92,51.5368377,-0.0121713
2026-06-18T10:53:06.220797,+0.04,-0.19,-1.04,51.5368377,-0.0121713
2026-06-18T10:53:06.247480,+0.17,-0.35,-0.96,51.5368377,-0.0121713
2026-06-18T10:53:06.311463,+0.15,-0.37,-1.06,51.5368377,-0.0121713
2026-06-18T10:53:06.369945,+0.06,-0.18,-0.87,51.5368377,-0.0121713
2026-06-18T10:53:06.432293,+0.15,-0.11,-1.09,51.5368377,-0.0121713
2026-06-18T10:53:06.520709,+0.06,-0.18,-0.82,51.5368377,-0.0121713
2026-06-18T10:53:06.579111,+0.12,-0.24,-1.11,51.5368377,-0.0121713
2026-06-18T10:53:06.641215,+0.21,-0.14,-0.98,51.5368377,-0.0121713
2026-06-18T10:53:06.701197,+0.28,-0.35,-0.70,51.5368377,-0.0121713
2026-06-18T10:53:06.762025,+0.16,-0.16,-0.86,51.5368377,-0.0121713
2026-06-18T10:53:06.850932,+0.04,-0.07,-1.12,51.5368747,-0.0121797
2026-06-18T10:53:06.909291,+0.07,-0.26,-0.95,51.5368747,-0.0121797
2026-06-18T10:53:06.972161,+0.13,-0.14,-0.94,51.5368747,-0.0121797
2026-06-18T10:53:07.030411,+0.11,-0.05,-0.79,51.5368747,-0.0121797
2026-06-18T10:53:07.122971,-0.02,-0.22,-1.37,51.5368747,-0.0121797
2026-06-18T10:53:07.179320,-0.07,-0.10,-1.22,51.5368747,-0.0121797
2026-06-18T10:53:07.243296,+0.19,-0.36,-0.84,51.5368747,-0.0121797
2026-06-18T10:53:07.299825,+0.06,-0.17,-0.98,51.5368747,-0.0121797
2026-06-18T10:53:07.362739,+0.25,-0.31,-0.81,51.5368747,-0.0121797
2026-06-18T10:53:07.450319,+0.15,-0.25,-1.06,51.5368747,-0.0121797
2026-06-18T10:53:07.513347,-0.00,-0.02,-1.12,51.5368747,-0.0121797
2026-06-18T10:53:07.571722,+0.37,-0.42,-0.61,51.5368747,-0.0121797
2026-06-18T10:53:07.631847,+0.08,-0.17,-0.73,51.5368747,-0.0121797
2026-06-18T10:53:07.691111,+0.10,-0.17,-0.92,51.5368747,-0.0121797
2026-06-18T10:53:07.780094,+0.13,-0.46,-1.39,51.5368747,-0.0121797
2026-06-18T10:53:07.838225,-0.14,+0.12,-1.12,51.5369102,-0.0121871
2026-06-18T10:53:07.899488,+0.11,-0.37,-0.85,51.5369102,-0.0121871
2026-06-18T10:53:07.959720,+0.11,-0.23,-1.13,51.5369102,-0.0121871
2026-06-18T10:53:08.020443,-0.14,-0.09,-1.33,51.5369102,-0.0121871
2026-06-18T10:53:08.113014,-0.01,-0.16,-1.15,51.5369102,-0.0121871
2026-06-18T10:53:08.170089,+0.20,-0.30,-0.67,51.5369102,-0.0121871
2026-06-18T10:53:08.231392,+0.17,-0.26,-0.93,51.5369102,-0.0121871
2026-06-18T10:53:08.289008,+0.03,-0.24,-1.09,51.5369102,-0.0121871
2026-06-18T10:53:08.355509,+0.20,-0.32,-1.00,51.5369102,-0.0121871
2026-06-18T10:53:08.441520,+0.09,-0.12,-1.04,51.5369102,-0.0121871
2026-06-18T10:53:08.501585,+0.08,-0.14,-0.75,51.5369102,-0.0121871
2026-06-18T10:53:08.562133,+0.02,-0.17,-1.16,51.5369102,-0.0121871
2026-06-18T10:53:08.618597,+0.08,-0.23,-1.20,51.5369102,-0.0121871
2026-06-18T10:53:08.684846,+0.11,-0.24,-1.06,51.5369102,-0.0121871
2026-06-18T10:53:08.768521,+0.25,-0.32,-0.82,51.5369102,-0.0121871
2026-06-18T10:53:08.829560,+0.23,-0.10,-0.83,51.5369452,-0.0121959
2026-06-18T10:53:08.891143,-0.06,+0.02,-1.57,51.5369452,-0.0121959
2026-06-18T10:53:08.952536,-0.03,-0.15,-1.07,51.5369452,-0.0121959
2026-06-18T10:53:09.042839,+0.14,-0.15,-0.81,51.5369452,-0.0121959
2026-06-18T10:53:09.100379,+0.22,-0.31,-0.93,51.5369452,-0.0121959
2026-06-18T10:53:09.162147,-0.06,-0.22,-1.17,51.5369452,-0.0121959
2026-06-18T10:53:09.222068,+0.05,-0.32,-1.00,51.5369452,-0.0121959
2026-06-18T10:53:09.280717,+0.07,-0.21,-1.05,51.5369452,-0.0121959
2026-06-18T10:53:09.370550,+0.05,-0.36,-1.09,51.5369452,-0.0121959
2026-06-18T10:53:09.432376,+0.05,-0.18,-1.04,51.5369452,-0.0121959
2026-06-18T10:53:09.490416,+0.10,-0.19,-0.88,51.5369452,-0.0121959
2026-06-18T10:53:09.549576,+0.19,-0.33,-0.91,51.5369452,-0.0121959
2026-06-18T10:53:09.608155,+0.06,-0.24,-1.06,51.5369452,-0.0121959
2026-06-18T10:53:09.701271,+0.27,-0.33,-0.73,51.5369452,-0.0121959
2026-06-18T10:53:09.761102,+0.07,-0.23,-0.92,51.5369452,-0.0121959
2026-06-18T10:53:09.819140,+0.08,-0.14,-1.05,51.5369809,-0.0122066
2026-06-18T10:53:09.880342,-0.00,-0.08,-1.13,51.5369809,-0.0122066
2026-06-18T10:53:09.941548,+0.26,-0.18,-0.80,51.5369809,-0.0122066
2026-06-18T10:53:10.030362,+0.04,-0.38,-1.00,51.5369809,-0.0122066
2026-06-18T10:53:10.092665,+0.24,-0.28,-0.98,51.5369809,-0.0122066
2026-06-18T10:53:10.151417,+0.18,-0.33,-0.98,51.5369809,-0.0122066
2026-06-18T10:53:10.208975,+0.02,-0.06,-1.04,51.5369809,-0.0122066
2026-06-18T10:53:10.270045,+0.11,-0.20,-1.08,51.5369809,-0.0122066
2026-06-18T10:53:10.362,+0.04,-0.12,-0.90,51.5369809,-0.0122066
2026-06-18T10:53:10.418106,+0.10,-0.46,-0.88,51.5369809,-0.0122066
2026-06-18T10:53:10.483833,+0.06,-0.23,-0.95,51.5369809,-0.0122066
2026-06-18T10:53:10.539196,+0.08,-0.27,-1.12,51.5369809,-0.0122066
2026-06-18T10:53:10.603207,+0.12,-0.11,-0.71,51.5369809,-0.0122066
2026-06-18T10:53:10.689192,+0.03,-0.14,-0.88,51.5369809,-0.0122066
2026-06-18T10:53:10.752302,+0.17,-0.29,-1.02,51.5369809,-0.0122066
2026-06-18T10:53:10.812437,+0.19,-0.30,-0.82,51.5370171,-0.0122193
2026-06-18T10:53:10.873687,+0.11,-0.15,-1.11,51.5370171,-0.0122193
2026-06-18T10:53:10.929336,+0.16,-0.17,-0.97,51.5370171,-0.0122193
2026-06-18T10:53:11.019406,+0.06,-0.27,-0.97,51.5370171,-0.0122193
2026-06-18T10:53:11.079675,+0.04,-0.26,-0.90,51.5370171,-0.0122193
2026-06-18T10:53:11.142192,+0.19,-0.24,-1.10,51.5370171,-0.0122193
2026-06-18T10:53:11.231,-0.03,-0.15,-0.91,51.5370171,-0.0122193
2026-06-18T10:53:11.293960,+0.03,-0.14,-1.03,51.5370171,-0.0122193
2026-06-18T10:53:11.352991,+0.16,-0.33,-0.96,51.5370171,-0.0122193
2026-06-18T10:53:11.408267,+0.09,-0.19,-0.85,51.5370171,-0.0122193
2026-06-18T10:53:11.474485,+0.05,-0.22,-1.11,51.5370171,-0.0122193
2026-06-18T10:53:11.560412,+0.12,-0.23,-1.07,51.5370171,-0.0122193
2026-06-18T10:53:11.619091,+0.01,-0.24,-0.90,51.5370171,-0.0122193
2026-06-18T10:53:11.682402,+0.14,-0.26,-0.93,51.5370171,-0.0122193
2026-06-18T10:53:11.741649,+0.22,-0.25,-0.82,51.5370171,-0.0122193
2026-06-18T10:53:11.801699,+0.01,-0.08,-1.28,51.5370524,-0.0122263
2026-06-18T10:53:11.891806,+0.10,-0.09,-1.02,51.5370524,-0.0122263
2026-06-18T10:53:11.952402,+0.24,-0.31,-0.81,51.5370524,-0.0122263
2026-06-18T10:53:12.012967,+0.13,-0.24,-0.63,51.5370524,-0.0122263
2026-06-18T10:53:12.069616,+0.23,-0.43,-0.56,51.5370524,-0.0122263
2026-06-18T10:53:12.132973,+0.32,-0.50,-0.69,51.5370524,-0.0122263
2026-06-18T10:53:12.220856,-0.06,-0.05,-0.52,51.5370524,-0.0122263
2026-06-18T10:53:12.279453,-0.06,-0.12,-1.23,51.5370524,-0.0122263
2026-06-18T10:53:12.343497,+0.07,-0.09,-0.72,51.5370524,-0.0122263
2026-06-18T10:53:12.400970,+0.08,-0.16,-0.80,51.5370524,-0.0122263
2026-06-18T10:53:12.461129,+0.05,-0.16,-0.82,51.5370524,-0.0122263
2026-06-18T10:53:12.547511,+0.19,-0.31,-0.58,51.5370524,-0.0122263
2026-06-18T10:53:12.611293,+0.09,-0.23,-0.90,51.5370524,-0.0122263
2026-06-18T10:53:12.674679,-0.02,-0.12,-1.15,51.5370524,-0.0122263
2026-06-18T10:53:12.729065,+0.06,-0.20,-0.99,51.5370524,-0.0122263
2026-06-18T10:53:12.793297,+0.04,-0.13,-0.73,51.5370878,-0.0122206
2026-06-18T10:53:12.881005,-0.01,-0.10,-1.11,51.5370878,-0.0122206
2026-06-18T10:53:12.939846,+0.20,-0.27,-1.07,51.5370878,-0.0122206
2026-06-18T10:53:13.004328,+0.08,-0.19,-1.04,51.5370878,-0.0122206
2026-06-18T10:53:13.062166,+0.20,-0.36,-0.67,51.5370878,-0.0122206
2026-06-18T10:53:13.151392,+0.14,-0.24,-0.92,51.5370878,-0.0122206
2026-06-18T10:53:13.208902,+0.03,-0.18,-0.95,51.5370878,-0.0122206
2026-06-18T10:53:13.271236,+0.13,-0.17,-0.92,51.5370878,-0.0122206
2026-06-18T10:53:13.329378,+0.04,-0.11,-1.12,51.5370878,-0.0122206
2026-06-18T10:53:13.389667,+0.19,-0.34,-0.65,51.5370878,-0.0122206
2026-06-18T10:53:13.481071,+0.05,-0.13,-0.83,51.5370878,-0.0122206
2026-06-18T10:53:13.541974,+0.08,-0.25,-0.73,51.5370878,-0.0122206
2026-06-18T10:53:13.602042,+0.24,-0.41,-0.90,51.5370878,-0.0122206
2026-06-18T10:53:13.658535,-0.08,+0.14,-1.21,51.5370878,-0.0122206
2026-06-18T10:53:13.724561,+0.15,-0.23,-1.00,51.5370878,-0.0122206
2026-06-18T10:53:13.807696,+0.03,-0.16,-1.04,51.5371215,-0.0122045
2026-06-18T10:53:13.868563,-0.18,+0.24,-1.34,51.5371215,-0.0122045
2026-06-18T10:53:13.928490,+0.23,-0.41,-1.21,51.5371215,-0.0122045
2026-06-18T10:53:13.990193,+0.23,-0.31,-0.76,51.5371215,-0.0122045
2026-06-18T10:53:14.051810,+0.09,-0.27,-0.96,51.5371215,-0.0122045
2026-06-18T10:53:14.141406,+0.19,-0.45,-1.04,51.5371215,-0.0122045
2026-06-18T10:53:14.199295,+0.10,-0.23,-0.96,51.5371215,-0.0122045
2026-06-18T10:53:14.260745,+0.00,-0.12,-1.05,51.5371215,-0.0122045
2026-06-18T10:53:14.320148,+0.15,-0.24,-0.78,51.5371215,-0.0122045
2026-06-18T10:53:14.380088,+0.10,-0.26,-1.00,51.5371215,-0.0122045
2026-06-18T10:53:14.472874,+0.05,-0.23,-0.92,51.5371215,-0.0122045
2026-06-18T10:53:14.531071,+0.09,-0.26,-0.95,51.5371215,-0.0122045
2026-06-18T10:53:14.592439,+0.10,-0.38,-0.78,51.5371215,-0.0122045
2026-06-18T10:53:14.651891,+0.10,-0.29,-0.92,51.5371215,-0.0122045
2026-06-18T10:53:14.713274,-0.02,-0.05,-1.04,51.5371215,-0.0122045
2026-06-18T10:53:14.802525,+0.01,-0.23,-0.86,51.5371517,-0.0121739
2026-06-18T10:53:14.858792,+0.10,-0.15,-0.98,51.5371517,-0.0121739
2026-06-18T10:53:14.920776,+0.12,-0.14,-0.87,51.5371517,-0.0121739
2026-06-18T10:53:14.980344,+0.20,-0.22,-0.86,51.5371517,-0.0121739
2026-06-18T10:53:15.036855,+0.03,-0.10,-1.10,51.5371517,-0.0121739
2026-06-18T10:53:15.132784,+0.10,-0.23,-1.04,51.5371517,-0.0121739
2026-06-18T10:53:15.191717,+0.07,-0.22,-1.01,51.5371517,-0.0121739
2026-06-18T10:53:15.252218,+0.15,-0.21,-0.83,51.5371517,-0.0121739
2026-06-18T10:53:15.312603,+0.11,-0.14,-1.01,51.5371517,-0.0121739
2026-06-18T10:53:15.400264,+0.14,-0.23,-1.00,51.5371517,-0.0121739
2026-06-18T10:53:15.461245,+0.19,-0.29,-0.72,51.5371517,-0.0121739
2026-06-18T10:53:15.523651,+0.14,-0.24,-0.87,51.5371517,-0.0121739
2026-06-18T10:53:15.579573,+0.14,-0.28,-0.79,51.5371517,-0.0121739
2026-06-18T10:53:15.643632,+0.08,-0.04,-0.91,51.5371517,-0.0121739
2026-06-18T10:53:15.729943,+0.07,-0.21,-0.81,51.5371517,-0.0121739
2026-06-18T10:53:15.793378,+0.01,-0.15,-1.00,51.5371804,-0.0121405
2026-06-18T10:53:15.852771,+0.12,-0.29,-1.04,51.5371804,-0.0121405
2026-06-18T10:53:15.908948,+0.19,-0.30,-0.87,51.5371804,-0.0121405
2026-06-18T10:53:15.972957,+0.12,-0.08,-0.64,51.5371804,-0.0121405
2026-06-18T10:53:16.061367,+0.11,-0.08,-1.01,51.5371804,-0.0121405
2026-06-18T10:53:16.121493,+0.12,-0.17,-1.04,51.5371804,-0.0121405
2026-06-18T10:53:16.178887,+0.06,-0.11,-1.02,51.5371804,-0.0121405
2026-06-18T10:53:16.242567,+0.16,-0.29,-1.00,51.5371804,-0.0121405
2026-06-18T10:53:16.302158,+0.22,-0.17,-0.95,51.5371804,-0.0121405
2026-06-18T10:53:16.393149,+0.23,-0.32,-0.91,51.5371804,-0.0121405
2026-06-18T10:53:16.454186,+0.05,-0.23,-1.13,51.5371804,-0.0121405
2026-06-18T10:53:16.509536,+0.10,-0.23,-1.03,51.5371804,-0.0121405
2026-06-18T10:53:16.573246,+0.07,-0.33,-0.77,51.5371804,-0.0121405
2026-06-18T10:53:16.631338,-0.13,+0.04,-0.92,51.5371804,-0.0121405
2026-06-18T10:53:16.722133,+0.16,-0.33,-1.04,51.5371804,-0.0121405
2026-06-18T10:53:16.778267,-0.06,-0.07,-0.82,51.5371804,-0.0121405
2026-06-18T10:53:16.838805,+0.08,-0.18,-0.64,51.5372048,-0.0120984
2026-06-18T10:53:16.902285,+0.20,-0.31,-0.94,51.5372048,-0.0120984
2026-06-18T10:53:16.962543,+0.06,-0.29,-0.82,51.5372048,-0.0120984
2026-06-18T10:53:17.052026,+0.07,-0.20,-0.97,51.5372048,-0.0120984
2026-06-18T10:53:17.113040,+0.11,-0.35,-0.78,51.5372048,-0.0120984
2026-06-18T10:53:17.173242,+0.04,-0.15,-0.88,51.5372048,-0.0120984
2026-06-18T10:53:17.259308,+0.13,-0.19,-0.89,51.5372048,-0.0120984
2026-06-18T10:53:17.324361,+0.16,-0.19,-0.93,51.5372048,-0.0120984
2026-06-18T10:53:17.379317,+0.05,-0.16,-0.96,51.5372048,-0.0120984
2026-06-18T10:53:17.438837,+0.03,-0.15,-0.90,51.5372048,-0.0120984
2026-06-18T10:53:17.504153,+0.04,-0.22,-0.96,51.5372048,-0.0120984
2026-06-18T10:53:17.591248,+0.08,-0.21,-1.01,51.5372048,-0.0120984
2026-06-18T10:53:17.651201,+0.19,-0.22,-0.86,51.5372048,-0.0120984
2026-06-18T10:53:17.713901,+0.16,-0.27,-1.18,51.5372048,-0.0120984
2026-06-18T10:53:17.769507,+0.08,-0.10,-0.95,51.5372048,-0.0120984
2026-06-18T10:53:17.830033,-0.08,-0.02,-1.43,51.5372262,-0.0120459
2026-06-18T10:53:17.919306,+0.18,-0.37,-1.02,51.5372262,-0.0120459
2026-06-18T10:53:17.979550,+0.05,-0.15,-1.05,51.5372262,-0.0120459
2026-06-18T10:53:18.042099,+0.10,-0.25,-1.11,51.5372262,-0.0120459
2026-06-18T10:53:18.099198,+0.18,-0.29,-0.90,51.5372262,-0.0120459
2026-06-18T10:53:18.162251,+0.07,-0.11,-1.05,51.5372262,-0.0120459
2026-06-18T10:53:18.250233,+0.11,-0.17,-0.95,51.5372262,-0.0120459
2026-06-18T10:53:18.308626,+0.18,-0.19,-0.81,51.5372262,-0.0120459
2026-06-18T10:53:18.372540,+0.13,-0.40,-0.83,51.5372262,-0.0120459
2026-06-18T10:53:18.431345,+0.05,-0.11,-0.96,51.5372262,-0.0120459
2026-06-18T10:53:18.493984,+0.11,-0.38,-1.02,51.5372262,-0.0120459
2026-06-18T10:53:18.578218,+0.14,-0.30,-0.73,51.5372262,-0.0120459
2026-06-18T10:53:18.641501,+0.02,-0.06,-0.98,51.5372262,-0.0120459
2026-06-18T10:53:18.702256,+0.14,-0.24,-0.93,51.5372262,-0.0120459
2026-06-18T10:53:18.759580,+0.04,-0.18,-0.82,51.5372262,-0.0120459
2026-06-18T10:53:18.819327,+0.09,-0.07,-0.96,51.5372476,-0.0119942
2026-06-18T10:53:18.908882,+0.17,-0.19,-0.87,51.5372476,-0.0119942
2026-06-18T10:53:18.968833,+0.14,-0.24,-0.98,51.5372476,-0.0119942
2026-06-18T10:53:19.032432,+0.02,-0.15,-1.10,51.5372476,-0.0119942
2026-06-18T10:53:19.091803,+0.03,-0.12,-1.05,51.5372476,-0.0119942
2026-06-18T10:53:19.153396,+0.15,-0.30,-0.84,51.5372476,-0.0119942
2026-06-18T10:53:19.242704,+0.13,-0.08,-0.87,51.5372476,-0.0119942
2026-06-18T10:53:19.302865,+0.05,-0.16,-1.02,51.5372476,-0.0119942
2026-06-18T10:53:19.360924,+0.08,-0.23,-1.04,51.5372476,-0.0119942
2026-06-18T10:53:19.419983,+0.16,-0.35,-0.86,51.5372476,-0.0119942
2026-06-18T10:53:19.511026,-0.04,-0.07,-1.10,51.5372476,-0.0119942
2026-06-18T10:53:19.569426,+0.12,-0.18,-0.72,51.5372476,-0.0119942
2026-06-18T10:53:19.630235,+0.19,-0.32,-1.12,51.5372476,-0.0119942
2026-06-18T10:53:19.692535,-0.05,-0.04,-1.06,51.5372476,-0.0119942
2026-06-18T10:53:19.749942,+0.09,-0.18,-1.17,51.5372476,-0.0119942
2026-06-18T10:53:19.839781,+0.14,-0.28,-0.98,51.5372677,-0.0119448
2026-06-18T10:53:19.899127,+0.15,-0.22,-0.88,51.5372677,-0.0119448
2026-06-18T10:53:19.962175,+0.11,-0.16,-0.99,51.5372677,-0.0119448
2026-06-18T10:53:20.022410,+0.06,-0.26,-1.04,51.5372677,-0.0119448
2026-06-18T10:53:20.084376,-0.02,-0.08,-1.03,51.5372677,-0.0119448
2026-06-18T10:53:20.173170,+0.17,-0.25,-0.85,51.5372677,-0.0119448
2026-06-18T10:53:20.233080,+0.08,-0.17,-0.90,51.5372677,-0.0119448
2026-06-18T10:53:20.293270,+0.19,-0.32,-0.84,51.5372677,-0.0119448
2026-06-18T10:53:20.352191,+0.17,-0.30,-1.01,51.5372677,-0.0119448
2026-06-18T10:53:20.408837,-0.01,-0.13,-1.31,51.5372677,-0.0119448
2026-06-18T10:53:20.502346,+0.13,-0.33,-0.90,51.5372677,-0.0119448
2026-06-18T10:53:20.558961,+0.08,-0.19,-0.83,51.5372677,-0.0119448
2026-06-18T10:53:20.622721,+0.05,-0.11,-1.00,51.5372677,-0.0119448
2026-06-18T10:53:20.681072,+0.05,-0.19,-0.88,51.5372677,-0.0119448
2026-06-18T10:53:20.743326,+0.12,-0.28,-0.77,51.5372677,-0.0119448
2026-06-18T10:53:20.829741,+0.17,-0.29,-0.94,51.5372851,-0.0118962
2026-06-18T10:53:20.889947,+0.18,-0.20,-0.67,51.5372851,-0.0118962
2026-06-18T10:53:20.952092,+0.14,-0.29,-1.00,51.5372851,-0.0118962
2026-06-18T10:53:21.011258,+0.09,-0.19,-0.80,51.5372851,-0.0118962
2026-06-18T10:53:21.071827,-0.02,-0.09,-1.09,51.5372851,-0.0118962
2026-06-18T10:53:21.160780,+0.10,-0.15,-0.86,51.5372851,-0.0118962
2026-06-18T10:53:21.220076,+0.11,-0.12,-0.95,51.5372851,-0.0118962
2026-06-18T10:53:21.281512,+0.02,-0.26,-1.19,51.5372851,-0.0118962
2026-06-18T10:53:21.340294,+0.14,-0.17,-1.03,51.5372851,-0.0118962
2026-06-18T10:53:21.433041,+0.19,-0.33,-0.80,51.5372851,-0.0118962
2026-06-18T10:53:21.490806,+0.02,-0.10,-0.77,51.5372851,-0.0118962
2026-06-18T10:53:21.551787,+0.09,-0.19,-1.18,51.5372851,-0.0118962
2026-06-18T10:53:21.610012,-0.01,-0.12,-1.06,51.5372851,-0.0118962
2026-06-18T10:53:21.671417,+0.06,-0.18,-0.83,51.5372851,-0.0118962
2026-06-18T10:53:21.761085,+0.30,-0.38,-0.61,51.5372851,-0.0118962
2026-06-18T10:53:21.817971,+0.14,-0.24,-1.03,51.5372975,-0.0118385
2026-06-18T10:53:21.879172,+0.11,-0.29,-0.82,51.5372975,-0.0118385
2026-06-18T10:53:21.941323,+0.17,-0.30,-0.78,51.5372975,-0.0118385
2026-06-18T10:53:22.003984,+0.19,-0.30,-0.63,51.5372975,-0.0118385
2026-06-18T10:53:22.091238,-0.05,-0.05,-0.96,51.5372975,-0.0118385
2026-06-18T10:53:22.153916,+0.19,-0.10,-0.61,51.5372975,-0.0118385
2026-06-18T10:53:22.211796,+0.16,-0.29,-0.87,51.5372975,-0.0118385
2026-06-18T10:53:22.272163,+0.03,-0.16,-1.01,51.5372975,-0.0118385
2026-06-18T10:53:22.330150,+0.11,-0.30,-0.95,51.5372975,-0.0118385
2026-06-18T10:53:22.420607,+0.18,-0.25,-0.75,51.5372975,-0.0118385
2026-06-18T10:53:22.482869,+0.11,-0.26,-0.98,51.5372975,-0.0118385
2026-06-18T10:53:22.539862,+0.03,-0.08,-1.05,51.5372975,-0.0118385
2026-06-18T10:53:22.602328,-0.06,-0.09,-1.11,51.5372975,-0.0118385
2026-06-18T10:53:22.661616,+0.04,-0.16,-0.89,51.5372975,-0.0118385
2026-06-18T10:53:22.750570,+0.04,-0.12,-1.04,51.5372975,-0.0118385
2026-06-18T10:53:22.810037,+0.16,-0.33,-0.85,51.5373069,-0.0117759
2026-06-18T10:53:22.871997,+0.02,-0.20,-1.14,51.5373069,-0.0117759
2026-06-18T10:53:22.928062,+0.01,-0.29,-1.18,51.5373069,-0.0117759
2026-06-18T10:53:22.994407,+0.03,-0.30,-0.93,51.5373069,-0.0117759
2026-06-18T10:53:23.082861,+0.04,-0.07,-0.83,51.5373069,-0.0117759
2026-06-18T10:53:23.139810,-0.02,+0.02,-1.22,51.5373069,-0.0117759
2026-06-18T10:53:23.199977,+0.10,-0.12,-0.58,51.5373069,-0.0117759
2026-06-18T10:53:23.260135,+0.06,-0.12,-0.91,51.5373069,-0.0117759
2026-06-18T10:53:23.352411,+0.11,-0.19,-1.05,51.5373069,-0.0117759
2026-06-18T10:53:23.410774,+0.07,-0.36,-1.08,51.5373069,-0.0117759
2026-06-18T10:53:23.470688,+0.23,-0.36,-0.96,51.5373069,-0.0117759
2026-06-18T10:53:23.533136,+0.11,-0.15,-0.98,51.5373069,-0.0117759
2026-06-18T10:53:23.592743,+0.09,-0.30,-0.66,51.5373069,-0.0117759
2026-06-18T10:53:23.681345,+0.01,-0.01,-0.94,51.5373069,-0.0117759
2026-06-18T10:53:23.738383,+0.16,-0.31,-1.28,51.5373069,-0.0117759
2026-06-18T10:53:23.829410,+0.10,-0.34,-0.84,51.5373137,-0.0117139
2026-06-18T10:53:23.862259,+0.06,-0.07,-1.16,51.5373137,-0.0117139
2026-06-18T10:53:23.919081,+0.06,-0.33,-1.05,51.5373137,-0.0117139
2026-06-18T10:53:24.011012,+0.03,-0.20,-0.79,51.5373137,-0.0117139
2026-06-18T10:53:24.071964,+0.18,-0.30,-0.70,51.5373137,-0.0117139
2026-06-18T10:53:24.130034,+0.06,-0.08,-1.29,51.5373137,-0.0117139
2026-06-18T10:53:24.191195,+0.14,-0.30,-1.10,51.5373137,-0.0117139
2026-06-18T10:53:24.251573,+0.20,-0.30,-0.80,51.5373137,-0.0117139
2026-06-18T10:53:24.342829,+0.09,-0.27,-0.76,51.5373137,-0.0117139
2026-06-18T10:53:24.399371,-0.23,+0.03,-1.54,51.5373137,-0.0117139
2026-06-18T10:53:24.461842,+0.08,-0.21,-0.94,51.5373137,-0.0117139
2026-06-18T10:53:24.519020,-0.13,+0.08,-0.98,51.5373137,-0.0117139
2026-06-18T10:53:24.579421,+0.08,-0.25,-0.61,51.5373137,-0.0117139
2026-06-18T10:53:24.671507,+0.21,-0.14,-0.93,51.5373137,-0.0117139
2026-06-18T10:53:24.733437,+0.09,-0.24,-0.86,51.5373137,-0.0117139
2026-06-18T10:53:24.791688,+0.03,-0.42,-1.69,51.5373208,-0.0116535
2026-06-18T10:53:24.852231,+0.20,-0.33,-1.10,51.5373208,-0.0116535
2026-06-18T10:53:24.909356,+0.00,-0.16,-0.81,51.5373208,-0.0116535
2026-06-18T10:53:25.002142,+0.07,-0.19,-0.92,51.5373208,-0.0116535
2026-06-18T10:53:25.061385,-0.12,-0.08,-1.31,51.5373208,-0.0116535
2026-06-18T10:53:25.122280,+0.11,-0.11,-1.24,51.5373208,-0.0116535
2026-06-18T10:53:25.184006,+0.10,-0.23,-0.88,51.5373208,-0.0116535
2026-06-18T10:53:25.239391,+0.12,-0.31,-1.16,51.5373208,-0.0116535
2026-06-18T10:53:25.330739,-0.02,-0.13,-1.15,51.5373208,-0.0116535
2026-06-18T10:53:25.393467,+0.13,-0.16,-0.91,51.5373208,-0.0116535
2026-06-18T10:53:25.454430,+0.10,-0.20,-0.91,51.5373208,-0.0116535
2026-06-18T10:53:25.509513,+0.04,-0.11,-0.88,51.5373208,-0.0116535
2026-06-18T10:53:25.597476,+0.15,-0.29,-0.87,51.5373208,-0.0116535
2026-06-18T10:53:25.661010,+0.13,-0.26,-0.85,51.5373208,-0.0116535
2026-06-18T10:53:25.718656,+0.11,-0.17,-0.88,51.5373208,-0.0116535
2026-06-18T10:53:25.778145,+0.07,-0.27,-0.83,51.5373208,-0.0116535
2026-06-18T10:53:25.839251,+0.15,-0.20,-0.69,51.53733,-0.0115952
2026-06-18T10:53:25.933281,+0.02,-0.10,-1.07,51.53733,-0.0115952
2026-06-18T10:53:25.991820,+0.14,-0.32,-0.97,51.53733,-0.0115952
2026-06-18T10:53:26.053138,+0.01,-0.07,-0.83,51.53733,-0.0115952
2026-06-18T10:53:26.112045,+0.05,-0.21,-0.88,51.53733,-0.0115952
2026-06-18T10:53:26.172143,-0.10,+0.03,-1.29,51.53733,-0.0115952
2026-06-18T10:53:26.259961,-0.10,-0.13,-1.56,51.53733,-0.0115952
2026-06-18T10:53:26.322488,+0.04,-0.24,-1.07,51.53733,-0.0115952
2026-06-18T10:53:26.380936,+0.21,-0.34,-0.24,51.53733,-0.0115952
2026-06-18T10:53:26.442408,+0.10,-0.18,-0.98,51.53733,-0.0115952
2026-06-18T10:53:26.500924,-0.10,-0.05,-1.20,51.53733,-0.0115952
2026-06-18T10:53:26.591738,+0.22,-0.32,-0.99,51.53733,-0.0115952
2026-06-18T10:53:26.652633,+0.12,-0.16,-0.57,51.53733,-0.0115952
2026-06-18T10:53:26.710542,+0.22,-0.19,-0.46,51.53733,-0.0115952
2026-06-18T10:53:26.767665,+0.26,-0.28,-0.87,51.53733,-0.0115952
2026-06-18T10:53:26.828967,-0.09,-0.00,-1.05,51.5373385,-0.0115388
2026-06-18T10:53:26.919499,+0.13,-0.23,-0.83,51.5373385,-0.0115388
2026-06-18T10:53:26.978387,+0.11,-0.14,-0.61,51.5373385,-0.0115388
2026-06-18T10:53:27.041185,+0.23,-0.33,-0.62,51.5373385,-0.0115388
2026-06-18T10:53:27.102476,+0.08,-0.16,-1.07,51.5373385,-0.0115388
2026-06-18T10:53:27.192407,+0.03,-0.16,-0.86,51.5373385,-0.0115388
2026-06-18T10:53:27.250228,+0.21,-0.20,-0.73,51.5373385,-0.0115388
2026-06-18T10:53:27.316936,-0.12,-0.02,-1.09,51.5373385,-0.0115388
2026-06-18T10:53:27.370243,+0.02,-0.13,-1.07,51.5373385,-0.0115388
2026-06-18T10:53:27.433323,+0.03,-0.20,-1.03,51.5373385,-0.0115388
2026-06-18T10:53:27.523383,+0.14,-0.19,-0.86,51.5373385,-0.0115388
2026-06-18T10:53:27.581896,+0.08,-0.25,-1.11,51.5373385,-0.0115388
2026-06-18T10:53:27.642912,+0.12,-0.24,-0.90,51.5373385,-0.0115388
2026-06-18T10:53:27.699459,+0.20,-0.39,-0.74,51.5373385,-0.0115388
2026-06-18T10:53:27.788566,+0.15,-0.09,-0.75,51.5373385,-0.0115388
2026-06-18T10:53:27.849362,+0.13,-0.21,-0.96,51.5373459,-0.0114831
2026-06-18T10:53:27.909867,+0.01,-0.07,-0.93,51.5373459,-0.0114831
2026-06-18T10:53:27.973605,+0.16,-0.17,-0.91,51.5373459,-0.0114831
2026-06-18T10:53:28.030747,+0.14,-0.28,-0.84,51.5373459,-0.0114831
2026-06-18T10:53:28.121452,+0.10,-0.21,-1.07,51.5373459,-0.0114831
2026-06-18T10:53:28.183072,+0.06,-0.20,-0.93,51.5373459,-0.0114831
2026-06-18T10:53:28.239836,+0.08,-0.25,-0.81,51.5373459,-0.0114831
2026-06-18T10:53:28.299559,-0.02,-0.05,-0.98,51.5373459,-0.0114831
2026-06-18T10:53:28.358310,+0.14,-0.23,-1.01,51.5373459,-0.0114831
2026-06-18T10:53:28.450418,+0.22,-0.34,-0.91,51.5373459,-0.0114831
2026-06-18T10:53:28.512289,-0.06,-0.14,-1.20,51.5373459,-0.0114831
2026-06-18T10:53:28.570520,+0.25,-0.36,-0.83,51.5373459,-0.0114831
2026-06-18T10:53:28.630631,+0.03,-0.20,-1.00,51.5373459,-0.0114831
2026-06-18T10:53:28.688503,-0.07,-0.03,-0.78,51.5373459,-0.0114831
2026-06-18T10:53:28.778490,+0.08,-0.29,-0.89,51.5373459,-0.0114831
2026-06-18T10:53:28.838767,+0.09,-0.17,-0.97,51.5373474,-0.0114224
2026-06-18T10:53:28.900919,+0.07,-0.24,-0.95,51.5373474,-0.0114224
2026-06-18T10:53:28.962379,+0.09,-0.19,-0.80,51.5373474,-0.0114224
2026-06-18T10:53:29.021405,+0.15,-0.27,-1.06,51.5373474,-0.0114224
2026-06-18T10:53:29.107603,+0.14,-0.18,-0.56,51.5373474,-0.0114224
2026-06-18T10:53:29.169771,+0.00,-0.25,-1.05,51.5373474,-0.0114224
2026-06-18T10:53:29.228531,-0.05,+0.02,-1.13,51.5373474,-0.0114224
2026-06-18T10:53:29.291200,+0.09,-0.17,-1.16,51.5373474,-0.0114224
2026-06-18T10:53:29.351621,+0.18,-0.32,-0.43,51.5373474,-0.0114224
2026-06-18T10:53:29.442454,+0.11,-0.18,-0.80,51.5373474,-0.0114224
2026-06-18T10:53:29.499302,+0.18,-0.27,-1.05,51.5373474,-0.0114224
2026-06-18T10:53:29.562634,+0.10,-0.14,-0.98,51.5373474,-0.0114224
2026-06-18T10:53:29.620658,+0.05,-0.08,-0.95,51.5373474,-0.0114224
2026-06-18T10:53:29.711124,+0.02,-0.20,-0.81,51.5373474,-0.0114224
2026-06-18T10:53:29.768731,+0.03,-0.20,-1.06,51.5373474,-0.0114224
2026-06-18T10:53:29.829066,-0.13,-0.02,-1.11,51.5373468,-0.0113605
2026-06-18T10:53:29.892114,+0.01,-0.28,-0.74,51.5373468,-0.0113605
2026-06-18T10:53:29.950899,+0.15,-0.22,-0.81,51.5373468,-0.0113605
2026-06-18T10:53:30.039814,+0.08,-0.09,-1.02,51.5373468,-0.0113605
2026-06-18T10:53:30.096667,-0.08,-0.08,-1.07,51.5373468,-0.0113605
2026-06-18T10:53:30.159389,+0.07,-0.17,-0.90,51.5373468,-0.0113605
2026-06-18T10:53:30.223227,+0.12,-0.17,-0.84,51.5373468,-0.0113605
2026-06-18T10:53:30.280538,+0.06,-0.09,-0.99,51.5373468,-0.0113605
2026-06-18T10:53:30.374407,+0.00,-0.19,-1.08,51.5373468,-0.0113605
2026-06-18T10:53:30.430731,+0.04,-0.14,-0.81,51.5373468,-0.0113605
2026-06-18T10:53:30.490510,+0.09,-0.15,-1.16,51.5373468,-0.0113605
2026-06-18T10:53:30.552986,+0.07,-0.15,-0.96,51.5373468,-0.0113605
2026-06-18T10:53:30.608771,-0.08,-0.17,-0.76,51.5373468,-0.0113605
2026-06-18T10:53:30.698020,+0.00,-0.10,-1.07,51.5373468,-0.0113605
2026-06-18T10:53:30.761230,-0.04,-0.07,-0.94,51.5373468,-0.0113605
2026-06-18T10:53:30.818618,+0.06,-0.11,-0.81,51.5373484,-0.0113035
2026-06-18T10:53:30.881452,+0.06,-0.17,-1.00,51.5373484,-0.0113035
2026-06-18T10:53:30.939780,+0.03,-0.17,-1.09,51.5373484,-0.0113035
2026-06-18T10:53:31.032278,+0.05,-0.19,-1.04,51.5373484,-0.0113035
2026-06-18T10:53:31.092597,+0.10,-0.22,-1.00,51.5373484,-0.0113035
2026-06-18T10:53:31.153175,+0.08,-0.20,-0.90,51.5373484,-0.0113035
2026-06-18T10:53:31.210419,+0.01,-0.16,-1.16,51.5373484,-0.0113035
2026-06-18T10:53:31.272637,+0.01,-0.09,-1.08,51.5373484,-0.0113035
2026-06-18T10:53:31.359658,-0.07,+0.02,-0.93,51.5373484,-0.0113035
2026-06-18T10:53:31.419750,+0.01,-0.13,-1.14,51.5373484,-0.0113035
2026-06-18T10:53:31.478885,-0.01,-0.11,-1.09,51.5373484,-0.0113035
2026-06-18T10:53:31.540784,+0.02,-0.06,-0.94,51.5373484,-0.0113035
2026-06-18T10:53:31.631660,-0.04,-0.01,-0.99,51.5373484,-0.0113035
2026-06-18T10:53:31.689177,+0.05,-0.10,-1.02,51.5373484,-0.0113035
2026-06-18T10:53:31.751597,+0.03,-0.17,-0.95,51.5373484,-0.0113035
2026-06-18T10:53:31.811543,+0.07,-0.12,-1.00,51.5373539,-0.0112596
2026-06-18T10:53:31.870894,-0.05,-0.02,-1.01,51.5373539,-0.0112596
2026-06-18T10:53:31.963584,+0.01,-0.14,-0.90,51.5373539,-0.0112596
2026-06-18T10:53:32.020220,+0.05,-0.13,-1.09,51.5373539,-0.0112596
2026-06-18T10:53:32.081421,+0.05,-0.07,-0.98,51.5373539,-0.0112596
2026-06-18T10:53:32.139204,-0.03,-0.12,-0.98,51.5373539,-0.0112596
2026-06-18T10:53:32.203984,-0.12,-0.10,-1.04,51.5373539,-0.0112596
2026-06-18T10:53:32.290139,+0.05,-0.15,-1.01,51.5373539,-0.0112596
2026-06-18T10:53:32.350681,+0.03,-0.10,-0.97,51.5373539,-0.0112596
2026-06-18T10:53:32.411790,+0.19,-0.31,-0.95,51.5373539,-0.0112596
2026-06-18T10:53:32.471734,+0.18,-0.13,-0.86,51.5373539,-0.0112596
2026-06-18T10:53:32.534762,+0.07,-0.19,-1.10,51.5373539,-0.0112596
2026-06-18T10:53:32.622115,+0.06,-0.12,-1.03,51.5373539,-0.0112596
2026-06-18T10:53:32.683657,+0.03,-0.06,-0.96,51.5373539,-0.0112596
2026-06-18T10:53:32.742939,+0.01,-0.13,-1.00,51.5373539,-0.0112596
2026-06-18T10:53:32.797537,+0.04,-0.15,-1.02,51.5373578,-0.011235
2026-06-18T10:53:32.889141,+0.12,+0.11,-1.05,51.5373578,-0.011235
2026-06-18T10:53:32.951983,-0.08,+0.05,-1.02,51.5373578,-0.011235
2026-06-18T10:53:33.009177,+0.06,+0.09,-1.03,51.5373578,-0.011235
2026-06-18T10:53:33.073156,+0.08,-0.00,-1.01,51.5373578,-0.011235
2026-06-18T10:53:33.132341,+0.17,-0.07,-1.03,51.5373578,-0.011235
2026-06-18T10:53:33.221314,+0.20,-0.05,-1.00,51.5373578,-0.011235
2026-06-18T10:53:33.280870,+0.27,-0.00,-1.00,51.5373578,-0.011235
2026-06-18T10:53:33.343378,+0.30,-0.09,-1.08,51.5373578,-0.011235
2026-06-18T10:53:33.401715,+0.26,-0.07,-1.19,51.5373578,-0.011235
2026-06-18T10:53:33.462014,+0.24,-0.13,-1.14,51.5373578,-0.011235
2026-06-18T10:53:33.552339,+0.07,-0.12,-1.11,51.5373578,-0.011235
2026-06-18T10:53:33.612770,+0.26,-0.03,-1.08,51.5373578,-0.011235
2026-06-18T10:53:33.672499,+0.12,-0.21,-0.93,51.5373578,-0.011235
2026-06-18T10:53:33.728648,+0.04,-0.17,-0.97,51.5373578,-0.011235
2026-06-18T10:53:33.819514,+0.09,-0.20,-0.95,51.5373577,-0.0112312
2026-06-18T10:53:33.884974,+0.18,-0.13,-0.94,51.5373577,-0.0112312
2026-06-18T10:53:33.938773,+0.09,-0.16,-0.95,51.5373577,-0.0112312
2026-06-18T10:53:34.002278,+0.01,-0.17,-0.97,51.5373577,-0.0112312
2026-06-18T10:53:34.063565,+0.14,-0.10,-0.99,51.5373577,-0.0112312
2026-06-18T10:53:34.150967,+0.24,-0.04,-1.01,51.5373577,-0.0112312
2026-06-18T10:53:34.210248,+0.16,-0.13,-0.99,51.5373577,-0.0112312
2026-06-18T10:53:34.270508,+0.17,-0.13,-0.98,51.5373577,-0.0112312
2026-06-18T10:53:34.332093,+0.23,-0.11,-0.99,51.5373577,-0.0112312
2026-06-18T10:53:34.390536,+0.22,-0.10,-0.98,51.5373577,-0.0112312
2026-06-18T10:53:34.483126,+0.15,-0.15,-0.97,51.5373577,-0.0112312
2026-06-18T10:53:34.539728,+0.13,-0.16,-0.97,51.5373577,-0.0112312
2026-06-18T10:53:34.597809,+0.15,-0.14,-0.98,51.5373577,-0.0112312
2026-06-18T10:53:34.661864,+0.18,-0.11,-0.99,51.5373577,-0.0112312
2026-06-18T10:53:34.722364,+0.15,-0.13,-0.98,51.5373577,-0.0112312
2026-06-18T10:53:34.811553,+0.14,-0.15,-0.98,51.5373572,-0.0112306
2026-06-18T10:53:34.871307,+0.15,-0.13,-0.98,51.5373572,-0.0112306
2026-06-18T10:53:34.932020,+0.16,-0.12,-0.98,51.5373572,-0.0112306
2026-06-18T10:53:34.988652,+0.15,-0.14,-0.98,51.5373572,-0.0112306
2026-06-18T10:53:35.052478,+0.16,-0.15,-0.98,51.5373572,-0.0112306
2026-06-18T10:53:35.139518,+0.17,-0.14,-0.98,51.5373572,-0.0112306
2026-06-18T10:53:35.200645,+0.17,-0.14,-0.98,51.5373572,-0.0112306
2026-06-18T10:53:35.262352,+0.16,-0.14,-0.98,51.5373572,-0.0112306
2026-06-18T10:53:35.319534,+0.13,-0.16,-0.98,51.5373572,-0.0112306
2026-06-18T10:53:35.381789,+0.14,-0.14,-0.98,51.5373572,-0.0112306
2026-06-18T10:53:35.471434,+0.16,-0.12,-0.98,51.5373572,-0.0112306
2026-06-18T10:53:35.531797,+0.15,-0.13,-0.98,51.5373572,-0.0112306
2026-06-18T10:53:35.589162,+0.13,-0.14,-0.98,51.5373572,-0.0112306
2026-06-18T10:53:35.654600,+0.13,-0.15,-0.98,51.5373572,-0.0112306
2026-06-18T10:53:35.741221,+0.14,-0.14,-0.98,51.5373572,-0.0112306
2026-06-18T10:53:35.799372,+0.16,-0.14,-0.98,51.5373547,-0.0112308
2026-06-18T10:53:35.858308,+0.14,-0.15,-0.98,51.5373547,-0.0112308
2026-06-18T10:53:35.919350,+0.13,-0.16,-0.98,51.5373547,-0.0112308
2026-06-18T10:53:35.982735,+0.14,-0.13,-0.98,51.5373547,-0.0112308
2026-06-18T10:53:36.072945,+0.13,-0.13,-0.98,51.5373547,-0.0112308
2026-06-18T10:53:36.127617,+0.14,-0.15,-0.97,51.5373547,-0.0112308
2026-06-18T10:53:36.191209,+0.16,-0.13,-0.97,51.5373547,-0.0112308
2026-06-18T10:53:36.250770,+0.18,-0.12,-0.98,51.5373547,-0.0112308
2026-06-18T10:53:36.313035,+0.16,-0.13,-0.98,51.5373547,-0.0112308
2026-06-18T10:53:36.401370,+0.13,-0.14,-0.98,51.5373547,-0.0112308
2026-06-18T10:53:36.458741,+0.14,-0.14,-0.98,51.5373547,-0.0112308
2026-06-18T10:53:36.522610,+0.17,-0.12,-0.98,51.5373547,-0.0112308
2026-06-18T10:53:36.581917,+0.16,-0.14,-0.98,51.5373547,-0.0112308
2026-06-18T10:53:36.640509,+0.12,-0.17,-0.97,51.5373547,-0.0112308
2026-06-18T10:53:36.732588,+0.13,-0.16,-0.97,51.5373547,-0.0112308
2026-06-18T10:53:36.792479,+0.16,-0.14,-0.98,51.5373561,-0.0112272
2026-06-18T10:53:36.850914,+0.16,-0.14,-0.98,51.5373561,-0.0112272
2026-06-18T10:53:36.911111,+0.13,-0.15,-0.98,51.5373561,-0.0112272
2026-06-18T10:53:36.970811,+0.14,-0.15,-0.97,51.5373561,-0.0112272
2026-06-18T10:53:37.062832,+0.16,-0.14,-0.98,51.5373561,-0.0112272
2026-06-18T10:53:37.120023,+0.17,-0.13,-0.98,51.5373561,-0.0112272
2026-06-18T10:53:37.182060,+0.15,-0.15,-0.98,51.5373561,-0.0112272
2026-06-18T10:53:37.243628,+0.14,-0.16,-0.97,51.5373561,-0.0112272
2026-06-18T10:53:37.298468,+0.15,-0.14,-0.98,51.5373561,-0.0112272
2026-06-18T10:53:37.389965,+0.16,-0.13,-0.98,51.5373561,-0.0112272
2026-06-18T10:53:37.449746,+0.14,-0.13,-0.98,51.5373561,-0.0112272
2026-06-18T10:53:37.508136,+0.14,-0.14,-0.98,51.5373561,-0.0112272
2026-06-18T10:53:37.570652,+0.14,-0.14,-0.98,51.5373561,-0.0112272
2026-06-18T10:53:37.629583,+0.14,-0.14,-0.98,51.5373561,-0.0112272
2026-06-18T10:53:37.720072,+0.13,-0.14,-0.98,51.5373561,-0.0112272
2026-06-18T10:53:37.778276,+0.12,-0.15,-0.98,51.5373561,-0.0112272
2026-06-18T10:53:37.838188,+0.14,-0.15,-0.98,51.5373582,-0.0112254
2026-06-18T10:53:37.899427,+0.15,-0.15,-0.98,51.5373582,-0.0112254
2026-06-18T10:53:37.988679,+0.14,-0.16,-0.98,51.5373582,-0.0112254
2026-06-18T10:53:38.048300,+0.14,-0.15,-0.98,51.5373582,-0.0112254
2026-06-18T10:53:38.109975,+0.15,-0.14,-0.98,51.5373582,-0.0112254
2026-06-18T10:53:38.170045,+0.14,-0.14,-0.98,51.5373582,-0.0112254
2026-06-18T10:53:38.226366,+0.14,-0.15,-0.98,51.5373582,-0.0112254
2026-06-18T10:53:38.316624,+0.15,-0.14,-0.98,51.5373582,-0.0112254
2026-06-18T10:53:38.376746,+0.16,-0.14,-0.98,51.5373582,-0.0112254
2026-06-18T10:53:38.438008,+0.14,-0.15,-0.98,51.5373582,-0.0112254
2026-06-18T10:53:38.497258,+0.13,-0.15,-0.98,51.5373582,-0.0112254
2026-06-18T10:53:38.556746,+0.15,-0.14,-0.98,51.5373582,-0.0112254
2026-06-18T10:53:38.646773,+0.15,-0.14,-0.98,51.5373582,-0.0112254
2026-06-18T10:53:38.706965,+0.15,-0.15,-0.98,51.5373582,-0.0112254
2026-06-18T10:53:38.768138,+0.15,-0.15,-0.98,51.5373582,-0.0112254
2026-06-18T10:53:38.828028,+0.15,-0.14,-0.98,51.5373591,-0.0112258
2026-06-18T10:53:38.887501,+0.14,-0.14,-0.98,51.5373591,-0.0112258
2026-06-18T10:53:38.978449,+0.14,-0.14,-0.98,51.5373591,-0.0112258
2026-06-18T10:53:39.037555,+0.14,-0.15,-0.98,51.5373591,-0.0112258
2026-06-18T10:53:39.099592,+0.14,-0.15,-0.98,51.5373591,-0.0112258
2026-06-18T10:53:39.157872,+0.14,-0.14,-0.98,51.5373591,-0.0112258
2026-06-18T10:53:39.218382,+0.14,-0.14,-0.98,51.5373591,-0.0112258
2026-06-18T10:53:39.308539,+0.14,-0.14,-0.98,51.5373591,-0.0112258
2026-06-18T10:53:39.368417,+0.14,-0.14,-0.98,51.5373591,-0.0112258
2026-06-18T10:53:39.428574,+0.14,-0.14,-0.98,51.5373591,-0.0112258
2026-06-18T10:53:39.488349,+0.14,-0.15,-0.98,51.5373591,-0.0112258
2026-06-18T10:53:39.547892,+0.14,-0.15,-0.98,51.5373591,-0.0112258
2026-06-18T10:53:39.637926,+0.15,-0.15,-0.98,51.5373591,-0.0112258
2026-06-18T10:53:39.698570,+0.15,-0.14,-0.98,51.5373591,-0.0112258
2026-06-18T10:53:39.762091,+0.14,-0.14,-0.98,51.5373591,-0.0112258
2026-06-18T10:53:39.846961,+0.14,-0.15,-0.98,51.5373592,-0.011226
2026-06-18T10:53:39.906812,+0.14,-0.15,-0.98,51.5373592,-0.011226
2026-06-18T10:53:39.966676,+0.15,-0.14,-0.98,51.5373592,-0.011226
2026-06-18T10:53:40.026591,+0.15,-0.14,-0.98,51.5373592,-0.011226
2026-06-18T10:53:40.086901,+0.14,-0.15,-0.98,51.5373592,-0.011226
2026-06-18T10:53:40.178670,+0.14,-0.15,-0.98,51.5373592,-0.011226
2026-06-18T10:53:40.241010,+0.15,-0.14,-0.98,51.5373592,-0.011226
2026-06-18T10:53:40.299421,+0.15,-0.14,-0.98,51.5373592,-0.011226
2026-06-18T10:53:40.358596,+0.14,-0.15,-0.98,51.5373592,-0.011226
2026-06-18T10:53:40.417941,+0.15,-0.14,-0.98,51.5373592,-0.011226
2026-06-18T10:53:40.507317,+0.14,-0.14,-0.98,51.5373592,-0.011226