Timestamp,Acc_X,Acc_Y,Acc_Z,Latitude,Longitude
2026-06-01T10:48:25.878485,+0.06,+0.12,-1.01,51.5364383,-0.012421
2026-06-01T10:48:25.939408,+0.01,+0.11,-1.01,51.5364383,-0.012421
2026-06-01T10:48:26.027920,+0.02,+0.07,-1.01,51.5364383,-0.012421
2026-06-01T10:48:26.088694,+0.02,+0.10,-1.00,51.5364383,-0.012421
2026-06-01T10:48:26.150596,+0.03,+0.05,-1.00,51.5364383,-0.012421
2026-06-01T10:48:26.208828,+0.05,+0.08,-1.00,51.5364383,-0.012421
2026-06-01T10:48:26.271787,+0.04,+0.05,-1.00,51.5364383,-0.012421
2026-06-01T10:48:26.359315,+0.05,+0.08,-1.01,51.5364142,-0.0124343
2026-06-01T10:48:26.419263,+0.03,+0.06,-0.99,51.5364142,-0.0124343
2026-06-01T10:48:26.479132,+0.00,+0.09,-1.01,51.5364142,-0.0124343
2026-06-01T10:48:26.540116,-0.02,+0.11,-1.02,51.5364142,-0.0124343
2026-06-01T10:48:26.600596,+0.05,+0.05,-1.01,51.5364142,-0.0124343
2026-06-01T10:48:26.689680,+0.00,+0.08,-0.99,51.5364142,-0.0124343
2026-06-01T10:48:26.749768,+0.01,+0.10,-1.00,51.5364142,-0.0124343
2026-06-01T10:48:26.810391,-0.01,+0.10,-1.02,51.5364142,-0.0124343
2026-06-01T10:48:26.871047,+0.00,+0.07,-1.02,51.5364142,-0.0124343
2026-06-01T10:48:26.932335,+0.02,+0.07,-1.00,51.5364142,-0.0124343
2026-06-01T10:48:27.019255,+0.06,+0.08,-0.99,51.5364142,-0.0124343
2026-06-01T10:48:27.079374,+0.06,+0.07,-1.00,51.5364142,-0.0124343
2026-06-01T10:48:27.139509,+0.02,+0.09,-1.00,51.5364142,-0.0124343
2026-06-01T10:48:27.200447,+0.00,+0.10,-1.00,51.5364142,-0.0124343
2026-06-01T10:48:27.290550,+0.00,+0.12,-1.01,51.5364142,-0.0124343
2026-06-01T10:48:27.349574,-0.00,+0.09,-1.00,51.5364127,-0.012428
2026-06-01T10:48:27.408122,+0.06,+0.08,-1.02,51.5364127,-0.012428
2026-06-01T10:48:27.468813,-0.00,+0.12,-1.02,51.5364127,-0.012428
2026-06-01T10:48:27.558055,+0.01,+0.04,-1.01,51.5364127,-0.012428
2026-06-01T10:48:27.619343,+0.02,+0.03,-0.98,51.5364127,-0.012428
2026-06-01T10:48:27.679999,+0.05,+0.15,-1.01,51.5364127,-0.012428
2026-06-01T10:48:27.740296,+0.04,+0.03,-0.99,51.5364127,-0.012428
2026-06-01T10:48:27.799712,-0.02,+0.04,-1.02,51.5364127,-0.012428
2026-06-01T10:48:27.890155,+0.07,+0.02,-1.01,51.5364127,-0.012428
2026-06-01T10:48:27.951497,+0.01,+0.11,-1.04,51.5364127,-0.012428
2026-06-01T10:48:28.011214,+0.01,+0.01,-0.97,51.5364127,-0.012428
2026-06-01T10:48:28.069722,-0.03,+0.21,-1.00,51.5364127,-0.012428
2026-06-01T10:48:28.133641,-0.15,+0.11,-1.08,51.5364127,-0.012428
2026-06-01T10:48:28.219982,+0.15,+0.08,-0.96,51.5364127,-0.012428
2026-06-01T10:48:28.282648,-0.03,+0.05,-0.99,51.5364127,-0.012428
2026-06-01T10:48:28.338536,+0.00,+0.03,-1.02,51.5364124,-0.01243
2026-06-01T10:48:28.400710,+0.06,-0.05,-1.01,51.5364124,-0.01243
2026-06-01T10:48:28.460796,+0.15,+0.16,-0.95,51.5364124,-0.01243
2026-06-01T10:48:28.549131,+0.07,+0.06,-0.93,51.5364124,-0.01243
2026-06-01T10:48:28.610729,+0.10,-0.02,-1.06,51.5364124,-0.01243
2026-06-01T10:48:28.671487,+0.10,+0.05,-0.99,51.5364124,-0.01243
2026-06-01T10:48:28.730267,+0.07,+0.05,-1.00,51.5364124,-0.01243
2026-06-01T10:48:28.792656,+0.13,+0.05,-0.98,51.5364124,-0.01243
2026-06-01T10:48:28.881783,+0.02,+0.05,-1.00,51.5364124,-0.01243
2026-06-01T10:48:28.939337,+0.08,+0.14,-0.98,51.5364124,-0.01243
2026-06-01T10:48:29.002073,+0.00,+0.12,-1.01,51.5364124,-0.01243
2026-06-01T10:48:29.061413,-0.00,+0.05,-1.02,51.5364124,-0.01243
2026-06-01T10:48:29.119400,-0.00,+0.05,-0.98,51.5364124,-0.01243
2026-06-01T10:48:29.209225,-0.01,+0.10,-1.05,51.5364124,-0.01243
2026-06-01T10:48:29.269368,+0.01,-0.04,-0.97,51.5364124,-0.01243
2026-06-01T10:48:29.328836,+0.03,+0.03,-0.97,51.5364124,-0.01243
2026-06-01T10:48:29.391071,-0.14,+0.15,-1.00,51.5364166,-0.0124296
2026-06-01T10:48:29.482296,-0.05,+0.18,-1.05,51.5364166,-0.0124296
2026-06-01T10:48:29.540163,+0.06,+0.04,-0.98,51.5364166,-0.0124296
2026-06-01T10:48:29.599382,+0.16,-0.04,-1.00,51.5364166,-0.0124296
2026-06-01T10:48:29.659610,+0.06,-0.17,-0.93,51.5364166,-0.0124296
2026-06-01T10:48:29.720957,+0.03,+0.07,-1.00,51.5364166,-0.0124296
2026-06-01T10:48:29.810766,+0.12,+0.19,-0.86,51.5364166,-0.0124296
2026-06-01T10:48:29.870409,+0.05,+0.11,-0.83,51.5364166,-0.0124296
2026-06-01T10:48:29.930516,+0.02,+0.17,-0.90,51.5364166,-0.0124296
2026-06-01T10:48:29.989879,+0.12,+0.37,-1.10,51.5364166,-0.0124296
2026-06-01T10:48:30.050349,-0.10,+0.45,-0.99,51.5364166,-0.0124296
2026-06-01T10:48:30.142137,-0.08,+0.17,-0.99,51.5364166,-0.0124296
2026-06-01T10:48:30.200362,-0.05,-0.01,-1.04,51.5364166,-0.0124296
2026-06-01T10:48:30.259501,-0.23,-0.02,-1.04,51.5364166,-0.0124296
2026-06-01T10:48:30.318226,+0.15,+0.27,-0.89,51.5364166,-0.0124296
2026-06-01T10:48:30.379826,+0.09,+0.25,-0.98,51.536418,-0.0124286
2026-06-01T10:48:30.471324,+0.33,+0.30,-0.87,51.536418,-0.0124286
2026-06-01T10:48:30.529883,-0.42,-0.08,-1.15,51.536418,-0.0124286
2026-06-01T10:48:30.590233,+0.13,+0.37,-1.05,51.536418,-0.0124286
2026-06-01T10:48:30.650484,+0.11,+0.34,-1.04,51.536418,-0.0124286
2026-06-01T10:48:30.741125,+0.19,+0.15,-1.16,51.536418,-0.0124286
2026-06-01T10:48:30.800711,+0.54,+0.15,-0.79,51.536418,-0.0124286
2026-06-01T10:48:30.860394,+0.10,+0.44,-0.95,51.536418,-0.0124286
2026-06-01T10:48:30.919689,+0.15,+0.03,-0.96,51.536418,-0.0124286
2026-06-01T10:48:30.979913,+0.36,-0.08,-1.11,51.536418,-0.0124286
2026-06-01T10:48:31.069528,-0.46,-0.27,-1.10,51.536418,-0.0124286
2026-06-01T10:48:31.128994,+0.04,+0.24,-1.25,51.536418,-0.0124286
2026-06-01T10:48:31.189599,+0.35,+0.17,-1.02,51.536418,-0.0124286
2026-06-01T10:48:31.249959,-0.12,+0.22,-0.94,51.536418,-0.0124286
2026-06-01T10:48:31.310247,+0.05,+0.35,-0.99,51.536418,-0.0124286
2026-06-01T10:48:31.399611,-0.01,-0.24,-0.85,51.5364243,-0.0124349
2026-06-01T10:48:31.461900,-0.29,+0.02,-0.86,51.5364243,-0.0124349
2026-06-01T10:48:31.519994,+0.07,-0.10,-1.31,51.5364243,-0.0124349
2026-06-01T10:48:31.579704,+0.37,-0.17,-1.11,51.5364243,-0.0124349
2026-06-01T10:48:31.670404,-0.18,+0.29,-1.21,51.5364243,-0.0124349
2026-06-01T10:48:31.730135,+0.28,-0.17,-1.04,51.5364243,-0.0124349
2026-06-01T10:48:31.790187,+0.07,+0.26,-1.08,51.5364243,-0.0124349
2026-06-01T10:48:31.850072,-0.16,+0.38,-1.12,51.5364243,-0.0124349
2026-06-01T10:48:31.910488,+0.48,+0.30,-0.87,51.5364243,-0.0124349
2026-06-01T10:48:31.999825,-0.04,-0.26,-1.05,51.5364243,-0.0124349
2026-06-01T10:48:32.060984,+0.32,-0.12,-0.90,51.5364243,-0.0124349
2026-06-01T10:48:32.120064,-0.11,+0.17,-1.08,51.5364243,-0.0124349
2026-06-01T10:48:32.179825,+0.31,+0.10,-0.99,51.5364243,-0.0124349
2026-06-01T10:48:32.240048,+0.08,-0.22,-0.97,51.5364243,-0.0124349
2026-06-01T10:48:32.329107,+0.28,-0.04,-1.00,51.5364356,-0.0124503
2026-06-01T10:48:32.391249,+0.24,+0.23,-0.89,51.5364356,-0.0124503
2026-06-01T10:48:32.450039,+0.01,-0.13,-1.00,51.5364356,-0.0124503
2026-06-01T10:48:32.510538,+0.64,+0.06,-0.73,51.5364356,-0.0124503
2026-06-01T10:48:32.570047,-0.31,-0.17,-1.20,51.5364356,-0.0124503
2026-06-01T10:48:32.660367,-0.25,+0.02,-0.91,51.5364356,-0.0124503
2026-06-01T10:48:32.720422,+0.61,+0.25,-0.77,51.5364356,-0.0124503
2026-06-01T10:48:32.780637,+0.03,-0.05,-0.79,51.5364356,-0.0124503
2026-06-01T10:48:32.840361,-0.08,-0.09,-0.96,51.5364356,-0.0124503
2026-06-01T10:48:32.897936,+0.22,+0.14,-0.72,51.5364356,-0.0124503
2026-06-01T10:48:32.989975,+0.43,+0.28,-1.13,51.5364356,-0.0124503
2026-06-01T10:48:33.051935,+0.31,+0.07,-1.02,51.5364356,-0.0124503
2026-06-01T10:48:33.111196,+0.11,-0.11,-1.15,51.5364356,-0.0124503
2026-06-01T10:48:33.169015,+0.23,+0.10,-0.93,51.5364356,-0.0124503
2026-06-01T10:48:33.229556,+0.19,+0.38,-0.98,51.5364356,-0.0124503
2026-06-01T10:48:33.319415,-0.19,-0.25,-1.13,51.5364356,-0.0124503
2026-06-01T10:48:33.382679,-0.32,-0.11,-1.08,51.5364538,-0.0124699
2026-06-01T10:48:33.440699,+0.25,+0.07,-1.12,51.5364538,-0.0124699
2026-06-01T10:48:33.502360,-0.10,-0.04,-0.95,51.5364538,-0.0124699
2026-06-01T10:48:33.588229,+0.17,-0.01,-1.08,51.5364538,-0.0124699
2026-06-01T10:48:33.649114,+0.45,+0.15,-0.97,51.5364538,-0.0124699
2026-06-01T10:48:33.709500,+0.07,-0.15,-1.04,51.5364538,-0.0124699
2026-06-01T10:48:33.770418,+0.11,+0.03,-0.80,51.5364538,-0.0124699
2026-06-01T10:48:33.830871,+0.16,+0.11,-0.99,51.5364538,-0.0124699
2026-06-01T10:48:33.920060,-0.18,-0.12,-0.94,51.5364538,-0.0124699
2026-06-01T10:48:33.979113,+0.11,-0.12,-1.06,51.5364538,-0.0124699
2026-06-01T10:48:34.038800,+0.25,+0.29,-1.06,51.5364538,-0.0124699
2026-06-01T10:48:34.099867,-0.05,+0.13,-1.11,51.5364538,-0.0124699
2026-06-01T10:48:34.159543,+0.17,-0.05,-0.92,51.5364538,-0.0124699
2026-06-01T10:48:34.251097,+0.04,-0.03,-0.93,51.5364538,-0.0124699
2026-06-01T10:48:34.310941,-0.19,+0.06,-0.98,51.5364538,-0.0124699
2026-06-01T10:48:34.368790,+0.28,+0.34,-1.01,51.5364763,-0.0124895
2026-06-01T10:48:34.432122,+0.09,+0.07,-1.08,51.5364763,-0.0124895
2026-06-01T10:48:34.489671,+0.29,+0.21,-0.78,51.5364763,-0.0124895
2026-06-01T10:48:34.581113,-0.37,-0.27,-1.22,51.5364763,-0.0124895
2026-06-01T10:48:34.639115,+0.36,+0.01,-1.22,51.5364763,-0.0124895
2026-06-01T10:48:34.698755,+0.20,-0.01,-0.82,51.5364763,-0.0124895
2026-06-01T10:48:34.761690,+0.05,-0.16,-0.99,51.5364763,-0.0124895
2026-06-01T10:48:34.821921,-0.10,-0.08,-1.00,51.5364763,-0.0124895
2026-06-01T10:48:34.910556,+0.40,+0.10,-1.02,51.5364763,-0.0124895
2026-06-01T10:48:34.969382,+0.06,+0.01,-1.09,51.5364763,-0.0124895
2026-06-01T10:48:35.029148,+0.06,+0.05,-0.92,51.5364763,-0.0124895
2026-06-01T10:48:35.089302,+0.10,+0.04,-1.02,51.5364763,-0.0124895
2026-06-01T10:48:35.151380,+0.08,+0.16,-0.85,51.5364763,-0.0124895
2026-06-01T10:48:35.244267,-0.05,-0.19,-1.01,51.5364763,-0.0124895
2026-06-01T10:48:35.299759,+0.18,-0.02,-1.30,51.5364763,-0.0124895
2026-06-01T10:48:35.359429,-0.02,+0.04,-0.80,51.5364992,-0.0125123
2026-06-01T10:48:35.419461,+0.04,-0.06,-1.07,51.5364992,-0.0125123
2026-06-01T10:48:35.508683,-0.18,-0.12,-1.01,51.5364992,-0.0125123
2026-06-01T10:48:35.569712,+0.51,+0.31,-1.06,51.5364992,-0.0125123
2026-06-01T10:48:35.631387,-0.25,-0.18,-1.00,51.5364992,-0.0125123
2026-06-01T10:48:35.688793,+0.09,+0.06,-1.12,51.5364992,-0.0125123
2026-06-01T10:48:35.749823,+0.22,+0.02,-1.02,51.5364992,-0.0125123
2026-06-01T10:48:35.839992,-0.22,-0.11,-0.91,51.5364992,-0.0125123
2026-06-01T10:48:35.899875,+0.32,-0.03,-1.07,51.5364992,-0.0125123
2026-06-01T10:48:35.961562,+0.04,-0.16,-0.86,51.5364992,-0.0125123
2026-06-01T10:48:36.020573,-0.15,+0.10,-0.94,51.5364992,-0.0125123
2026-06-01T10:48:36.079759,+0.33,+0.08,-1.08,51.5364992,-0.0125123
2026-06-01T10:48:36.170749,+0.16,+0.06,-1.00,51.5364992,-0.0125123
2026-06-01T10:48:36.232302,-0.18,-0.22,-0.98,51.5364992,-0.0125123
2026-06-01T10:48:36.290802,+0.41,+0.19,-0.97,51.5364992,-0.0125123
2026-06-01T10:48:36.350832,-0.06,-0.20,-1.16,51.5365228,-0.0125374
2026-06-01T10:48:36.408924,+0.17,+0.17,-0.97,51.5365228,-0.0125374
2026-06-01T10:48:36.498966,-0.05,-0.01,-0.90,51.5365228,-0.0125374
2026-06-01T10:48:36.558752,-0.19,-0.01,-1.10,51.5365228,-0.0125374
2026-06-01T10:48:36.622607,+0.11,+0.30,-1.03,51.5365228,-0.0125374
2026-06-01T10:48:36.679795,+0.23,+0.15,-0.90,51.5365228,-0.0125374
2026-06-01T10:48:36.741457,-0.15,-0.11,-1.11,51.5365228,-0.0125374
2026-06-01T10:48:36.832338,+0.23,+0.18,-1.06,51.5365228,-0.0125374
2026-06-01T10:48:36.890996,+0.27,+0.07,-1.08,51.5365228,-0.0125374
2026-06-01T10:48:36.953977,-0.15,-0.19,-1.14,51.5365228,-0.0125374
2026-06-01T10:48:37.010901,+0.31,+0.25,-0.88,51.5365228,-0.0125374
2026-06-01T10:48:37.069981,-0.23,-0.13,-1.19,51.5365228,-0.0125374
2026-06-01T10:48:37.159788,+0.06,+0.01,-0.99,51.5365228,-0.0125374
2026-06-01T10:48:37.219624,+0.27,+0.08,-0.81,51.5365228,-0.0125374
2026-06-01T10:48:37.279991,-0.42,-0.20,-1.04,51.5365228,-0.0125374
2026-06-01T10:48:37.348952,+0.16,+0.38,-1.04,51.5365228,-0.0125374
2026-06-01T10:48:37.399945,-0.13,+0.22,-1.20,51.5365465,-0.0125648
2026-06-01T10:48:37.495577,+0.06,-0.06,-0.97,51.5365465,-0.0125648
2026-06-01T10:48:37.549417,+0.03,-0.03,-0.99,51.5365465,-0.0125648
2026-06-01T10:48:37.610760,+0.15,-0.27,-1.01,51.5365465,-0.0125648
2026-06-01T10:48:37.699244,+0.11,-0.22,-0.96,51.5365465,-0.0125648
2026-06-01T10:48:37.759460,+0.38,-0.13,-0.92,51.5365465,-0.0125648
2026-06-01T10:48:37.819855,-0.27,-0.25,-0.88,51.5365465,-0.0125648
2026-06-01T10:48:37.879871,-0.00,-0.09,-1.20,51.5365465,-0.0125648
2026-06-01T10:48:37.939501,+0.40,+0.25,-0.98,51.5365465,-0.0125648
2026-06-01T10:48:38.029607,-0.16,+0.30,-0.95,51.5365465,-0.0125648
2026-06-01T10:48:38.091268,-0.12,+0.18,-0.97,51.5365465,-0.0125648
2026-06-01T10:48:38.150854,+0.26,+0.31,-0.62,51.5365465,-0.0125648
2026-06-01T10:48:38.210371,-0.22,-0.14,-0.72,51.5365465,-0.0125648
2026-06-01T10:48:38.269744,+0.03,-0.02,-1.34,51.5365465,-0.0125648
2026-06-01T10:48:38.360123,+0.15,-0.13,-1.20,51.5365795,-0.012591
2026-06-01T10:48:38.419987,+0.47,+0.27,-0.85,51.5365795,-0.012591
2026-06-01T10:48:38.479560,-0.58,-0.25,-0.96,51.5365795,-0.012591
2026-06-01T10:48:38.540595,+0.12,+0.08,-0.91,51.5365795,-0.012591
2026-06-01T10:48:38.600066,-0.40,-0.34,-1.53,51.5365795,-0.012591
2026-06-01T10:48:38.688943,+0.24,+0.19,-1.00,51.5365795,-0.012591
2026-06-01T10:48:38.749555,+0.35,+0.05,-0.78,51.5365795,-0.012591
2026-06-01T10:48:38.809255,-0.23,-0.13,-0.92,51.5365795,-0.012591
2026-06-01T10:48:38.869863,-0.10,+0.03,-0.92,51.5365795,-0.012591
2026-06-01T10:48:38.929382,+0.04,+0.03,-1.14,51.5365795,-0.012591
2026-06-01T10:48:39.020263,-0.17,-0.01,-1.15,51.5365795,-0.012591
2026-06-01T10:48:39.078722,+0.12,+0.12,-1.03,51.5365795,-0.012591
2026-06-01T10:48:39.139836,+0.18,+0.25,-0.95,51.5365795,-0.012591
2026-06-01T10:48:39.198915,-0.14,-0.24,-0.90,51.5365795,-0.012591
2026-06-01T10:48:39.260768,-0.11,-0.03,-1.00,51.5365795,-0.012591
2026-06-01T10:48:39.351952,+0.45,+0.22,-0.81,51.5366077,-0.0126176
2026-06-01T10:48:39.409612,-0.49,-0.10,-1.32,51.5366077,-0.0126176
2026-06-01T10:48:39.469548,+0.52,+0.25,-0.72,51.5366077,-0.0126176
2026-06-01T10:48:39.529414,-0.06,-0.02,-1.17,51.5366077,-0.0126176
2026-06-01T10:48:39.589798,+0.33,+0.04,-0.78,51.5366077,-0.0126176
2026-06-01T10:48:39.680132,-0.15,-0.11,-0.98,51.5366077,-0.0126176
2026-06-01T10:48:39.740197,+0.16,-0.15,-0.88,51.5366077,-0.0126176
2026-06-01T10:48:39.798769,-0.34,-0.31,-1.23,51.5366077,-0.0126176
2026-06-01T10:48:39.859556,+0.71,+0.07,-0.63,51.5366077,-0.0126176
2026-06-01T10:48:39.949309,-0.03,-0.09,-1.19,51.5366077,-0.0126176
2026-06-01T10:48:40.009219,+0.01,+0.20,-1.09,51.5366077,-0.0126176
2026-06-01T10:48:40.070373,+0.26,+0.14,-0.82,51.5366077,-0.0126176
2026-06-01T10:48:40.128984,-0.08,-0.19,-1.06,51.5366077,-0.0126176
2026-06-01T10:48:40.189816,-0.02,-0.23,-1.36,51.5366077,-0.0126176
2026-06-01T10:48:40.280072,+0.32,-0.07,-0.91,51.5366077,-0.0126176
2026-06-01T10:48:40.339693,-0.17,-0.13,-1.17,51.5366324,-0.0126401
2026-06-01T10:48:40.400249,+0.43,+0.35,-0.95,51.5366324,-0.0126401
2026-06-01T10:48:40.459616,-0.28,+0.31,-0.91,51.5366324,-0.0126401
2026-06-01T10:48:40.519729,-0.43,-0.28,-1.31,51.5366324,-0.0126401
2026-06-01T10:48:40.609665,+0.17,+0.12,-1.18,51.5366324,-0.0126401
2026-06-01T10:48:40.670453,+0.96,+0.20,-1.20,51.5366324,-0.0126401
2026-06-01T10:48:40.729860,-0.21,-0.01,-0.83,51.5366324,-0.0126401
2026-06-01T10:48:40.789361,-0.11,+0.10,-0.86,51.5366324,-0.0126401
2026-06-01T10:48:40.852714,+0.25,+0.53,-0.73,51.5366324,-0.0126401
2026-06-01T10:48:40.938757,+0.38,-0.19,-0.78,51.5366324,-0.0126401
2026-06-01T10:48:40.999413,-0.65,-0.22,-1.24,51.5366324,-0.0126401
2026-06-01T10:48:41.060664,-0.24,-0.27,-0.86,51.5366324,-0.0126401
2026-06-01T10:48:41.119022,-0.02,-0.22,-0.09,51.5366324,-0.0126401
2026-06-01T10:48:41.179964,+0.04,+0.06,-0.74,51.5366324,-0.0126401
2026-06-01T10:48:41.270897,+0.04,-0.49,-0.57,51.5366324,-0.0126401
2026-06-01T10:48:41.328754,+0.40,+0.12,-1.21,51.5366542,-0.0126731
2026-06-01T10:48:41.389747,-0.00,+0.11,-0.93,51.5366542,-0.0126731
2026-06-01T10:48:41.450566,+0.02,-0.13,-0.99,51.5366542,-0.0126731
2026-06-01T10:48:41.509574,-0.50,-0.23,-1.08,51.5366542,-0.0126731
2026-06-01T10:48:41.600143,+0.18,+0.15,-1.21,51.5366542,-0.0126731
2026-06-01T10:48:41.660689,+0.14,+0.30,-0.94,51.5366542,-0.0126731
2026-06-01T10:48:41.719706,-0.22,-0.12,-1.25,51.5366542,-0.0126731
2026-06-01T10:48:41.779827,+0.37,+0.23,-0.88,51.5366542,-0.0126731
2026-06-01T10:48:41.870718,-0.12,-0.02,-1.00,51.5366542,-0.0126731
2026-06-01T10:48:41.929883,+0.57,+0.32,-0.80,51.5366542,-0.0126731
2026-06-01T10:48:41.990934,-0.33,-0.18,-1.22,51.5366542,-0.0126731
2026-06-01T10:48:42.049925,+0.24,+0.16,-1.00,51.5366542,-0.0126731
2026-06-01T10:48:42.142296,+0.36,+0.25,-0.83,51.5366542,-0.0126731
2026-06-01T10:48:42.199584,-0.36,-0.14,-1.10,51.5366542,-0.0126731
2026-06-01T10:48:42.260062,+0.23,-0.06,-1.04,51.5366542,-0.0126731
2026-06-01T10:48:42.320569,+0.04,-0.07,-0.86,51.5366542,-0.0126731
2026-06-01T10:48:42.379896,+0.05,-0.23,-1.09,51.5366768,-0.0126997
2026-06-01T10:48:42.470043,+0.32,+0.31,-1.14,51.5366768,-0.0126997
2026-06-01T10:48:42.529892,+0.12,-0.04,-0.92,51.5366768,-0.0126997
2026-06-01T10:48:42.590603,-0.17,-0.17,-1.05,51.5366768,-0.0126997
2026-06-01T10:48:42.649474,+0.15,-0.14,-0.72,51.5366768,-0.0126997
2026-06-01T10:48:42.710136,-0.19,-0.16,-1.24,51.5366768,-0.0126997
2026-06-01T10:48:42.799771,+0.25,-0.08,-0.83,51.5366768,-0.0126997
2026-06-01T10:48:42.859448,+0.26,+0.09,-1.07,51.5366768,-0.0126997
2026-06-01T10:48:42.919068,+0.09,+0.09,-1.04,51.5366768,-0.0126997
2026-06-01T10:48:42.980346,-0.02,+0.04,-0.95,51.5366768,-0.0126997
2026-06-01T10:48:43.039984,-0.34,+0.03,-0.99,51.5366768,-0.0126997
2026-06-01T10:48:43.130049,-0.02,-0.09,-1.26,51.5366768,-0.0126997
2026-06-01T10:48:43.189875,+0.43,+0.37,-0.61,51.5366768,-0.0126997
2026-06-01T10:48:43.249754,+0.14,+0.26,-1.18,51.5366768,-0.0126997
2026-06-01T10:48:43.311436,+0.10,+0.23,-0.91,51.5366768,-0.0126997
2026-06-01T10:48:43.370357,-0.20,+0.00,-0.90,51.5367033,-0.0127231
2026-06-01T10:48:43.460325,+0.24,+0.07,-1.21,51.5367033,-0.0127231
2026-06-01T10:48:43.520107,-0.18,-0.19,-0.82,51.5367033,-0.0127231
2026-06-01T10:48:43.580792,+0.35,+0.09,-1.06,51.5367033,-0.0127231
2026-06-01T10:48:43.639455,-0.14,-0.06,-1.01,51.5367033,-0.0127231
2026-06-01T10:48:43.700255,+0.26,-0.00,-1.00,51.5367033,-0.0127231
2026-06-01T10:48:43.788390,+0.21,+0.17,-0.90,51.5367033,-0.0127231
2026-06-01T10:48:43.850116,+0.01,+0.07,-1.08,51.5367033,-0.0127231
2026-06-01T10:48:43.908966,+0.21,+0.15,-1.14,51.5367033,-0.0127231
2026-06-01T10:48:43.969305,+0.08,+0.10,-1.20,51.5367033,-0.0127231
2026-06-01T10:48:44.061101,+0.01,-0.09,-0.99,51.5367033,-0.0127231
2026-06-01T10:48:44.120247,+0.24,+0.12,-0.95,51.5367033,-0.0127231
2026-06-01T10:48:44.179735,-0.06,+0.12,-0.96,51.5367033,-0.0127231
2026-06-01T10:48:44.240283,-0.09,+0.20,-0.90,51.5367033,-0.0127231
2026-06-01T10:48:44.301894,-0.07,-0.03,-1.22,51.5367033,-0.0127231
2026-06-01T10:48:44.389361,+0.17,+0.19,-1.07,51.536725,-0.0127517
2026-06-01T10:48:44.448790,+0.08,+0.07,-0.80,51.536725,-0.0127517
2026-06-01T10:48:44.509153,-0.02,-0.03,-1.08,51.536725,-0.0127517
2026-06-01T10:48:44.569304,+0.12,+0.17,-0.98,51.536725,-0.0127517
2026-06-01T10:48:44.629527,+0.20,+0.07,-0.98,51.536725,-0.0127517
2026-06-01T10:48:44.720281,+0.03,-0.06,-1.03,51.536725,-0.0127517
2026-06-01T10:48:44.810323,+0.20,+0.26,-0.83,51.536725,-0.0127517
2026-06-01T10:48:44.844112,+0.05,-0.07,-1.04,51.536725,-0.0127517
2026-06-01T10:48:44.899366,-0.02,-0.12,-1.01,51.536725,-0.0127517
2026-06-01T10:48:44.959634,+0.26,+0.19,-1.09,51.536725,-0.0127517
2026-06-01T10:48:45.049816,-0.06,-0.06,-0.82,51.536725,-0.0127517
2026-06-01T10:48:45.109395,+0.02,-0.06,-1.03,51.536725,-0.0127517
2026-06-01T10:48:45.169473,+0.42,+0.24,-0.95,51.536725,-0.0127517
2026-06-01T10:48:45.229836,+0.09,+0.06,-1.02,51.536725,-0.0127517
2026-06-01T10:48:45.290690,-0.06,-0.10,-0.99,51.536725,-0.0127517
2026-06-01T10:48:45.409558,+0.22,+0.04,-0.97,51.5367453,-0.0127819
2026-06-01T10:48:45.442742,-0.13,+0.05,-1.19,51.5367453,-0.0127819
2026-06-01T10:48:45.530242,+0.21,+0.04,-0.92,51.5367453,-0.0127819
2026-06-01T10:48:45.560611,+0.01,-0.16,-0.97,51.5367453,-0.0127819
2026-06-01T10:48:45.649783,+0.15,+0.02,-0.94,51.5367453,-0.0127819
2026-06-01T10:48:45.709573,+0.15,-0.16,-1.03,51.5367453,-0.0127819
2026-06-01T10:48:45.770534,+0.33,+0.16,-0.93,51.5367453,-0.0127819
2026-06-01T10:48:45.830312,-0.16,-0.17,-1.04,51.5367453,-0.0127819
2026-06-01T10:48:45.919824,+0.34,+0.36,-0.95,51.5367453,-0.0127819
2026-06-01T10:48:45.980211,-0.03,-0.09,-1.20,51.5367453,-0.0127819
2026-06-01T10:48:46.039859,+0.18,+0.02,-0.88,51.5367453,-0.0127819
2026-06-01T10:48:46.100026,+0.05,-0.17,-0.83,51.5367453,-0.0127819
2026-06-01T10:48:46.158812,+0.05,-0.03,-1.10,51.5367453,-0.0127819
2026-06-01T10:48:46.251283,+0.21,+0.03,-0.88,51.5367453,-0.0127819
2026-06-01T10:48:46.310236,+0.14,+0.04,-0.99,51.5367453,-0.0127819
2026-06-01T10:48:46.370942,-0.05,+0.06,-1.26,51.5367687,-0.0128065
2026-06-01T10:48:46.429902,+0.47,+0.24,-0.89,51.5367687,-0.0128065
2026-06-01T10:48:46.489625,-0.03,-0.05,-1.02,51.5367687,-0.0128065
2026-06-01T10:48:46.580365,+0.04,-0.03,-1.07,51.5367687,-0.0128065
2026-06-01T10:48:46.639512,+0.19,+0.17,-0.92,51.5367687,-0.0128065
2026-06-01T10:48:46.702642,-0.12,+0.04,-1.08,51.5367687,-0.0128065
2026-06-01T10:48:46.760281,+0.09,+0.27,-1.01,51.5367687,-0.0128065
2026-06-01T10:48:46.819912,+0.03,+0.01,-0.93,51.5367687,-0.0128065
2026-06-01T10:48:46.910595,-0.07,-0.17,-0.94,51.5367687,-0.0128065
2026-06-01T10:48:46.970230,+0.21,-0.03,-0.86,51.5367687,-0.0128065
2026-06-01T10:48:47.030500,+0.25,+0.09,-1.01,51.5367687,-0.0128065
2026-06-01T10:48:47.093167,+0.02,+0.09,-1.01,51.5367687,-0.0128065
2026-06-01T10:48:47.149452,-0.12,+0.01,-0.90,51.5367687,-0.0128065
2026-06-01T10:48:47.240565,+0.09,-0.13,-1.01,51.5367687,-0.0128065
2026-06-01T10:48:47.300925,+0.15,-0.21,-0.98,51.5367687,-0.0128065
2026-06-01T10:48:47.359156,-0.06,-0.17,-0.99,51.5367957,-0.0128243
2026-06-01T10:48:47.419494,+0.05,-0.16,-0.95,51.5367957,-0.0128243
2026-06-01T10:48:47.479263,+0.34,+0.11,-1.02,51.5367957,-0.0128243
2026-06-01T10:48:47.569759,-0.24,-0.19,-1.11,51.5367957,-0.0128243
2026-06-01T10:48:47.630970,+0.23,+0.33,-0.99,51.5367957,-0.0128243
2026-06-01T10:48:47.695922,-0.17,-0.14,-1.05,51.5367957,-0.0128243
2026-06-01T10:48:47.749495,+0.14,-0.03,-0.98,51.5367957,-0.0128243
2026-06-01T10:48:47.869978,+0.18,-0.01,-1.04,51.5367957,-0.0128243
2026-06-01T10:48:47.899456,-0.26,-0.14,-1.19,51.5367957,-0.0128243
2026-06-01T10:48:47.960435,+0.36,+0.14,-1.12,51.5367957,-0.0128243
2026-06-01T10:48:48.019930,+0.17,+0.20,-0.99,51.5367957,-0.0128243
2026-06-01T10:48:48.080480,-0.08,-0.02,-1.06,51.5367957,-0.0128243
2026-06-01T10:48:48.170543,+0.19,+0.05,-1.01,51.5367957,-0.0128243
2026-06-01T10:48:48.229985,-0.10,+0.22,-1.10,51.5367957,-0.0128243
2026-06-01T10:48:48.289948,-0.00,+0.26,-1.12,51.5367957,-0.0128243
2026-06-01T10:48:48.379965,+0.02,-0.01,-0.84,51.5368236,-0.0128399
2026-06-01T10:48:48.411084,-0.22,+0.10,-0.90,51.5368236,-0.0128399
2026-06-01T10:48:48.500401,-0.27,-0.20,-1.32,51.5368236,-0.0128399
2026-06-01T10:48:48.560543,+0.62,+0.16,-0.56,51.5368236,-0.0128399
2026-06-01T10:48:48.620887,-0.60,-0.08,-0.56,51.5368236,-0.0128399
2026-06-01T10:48:48.710331,+0.46,+0.19,-1.03,51.5368236,-0.0128399
2026-06-01T10:48:48.742724,-0.27,-0.24,-0.84,51.5368236,-0.0128399
2026-06-01T10:48:48.829641,+0.31,+0.00,-0.93,51.5368236,-0.0128399
2026-06-01T10:48:48.891351,-0.22,-0.19,-0.98,51.5368236,-0.0128399
2026-06-01T10:48:48.950089,+0.30,-0.05,-1.08,51.5368236,-0.0128399
2026-06-01T10:48:49.010422,+0.40,+0.34,-0.98,51.5368236,-0.0128399
2026-06-01T10:48:49.070378,+0.17,+0.22,-0.92,51.5368236,-0.0128399
2026-06-01T10:48:49.159579,-0.02,-0.04,-0.94,51.5368236,-0.0128399
2026-06-01T10:48:49.220564,+0.04,+0.01,-1.09,51.5368236,-0.0128399
2026-06-01T10:48:49.279950,+0.35,+0.09,-0.92,51.5368236,-0.0128399
2026-06-01T10:48:49.343853,-0.15,-0.02,-1.04,51.5368475,-0.0128617
2026-06-01T10:48:49.399747,+0.16,+0.24,-0.95,51.5368475,-0.0128617
2026-06-01T10:48:49.490076,-0.07,-0.03,-0.89,51.5368475,-0.0128617
2026-06-01T10:48:49.549698,+0.14,-0.01,-1.15,51.5368475,-0.0128617
2026-06-01T10:48:49.611275,+0.28,+0.01,-1.08,51.5368475,-0.0128617
2026-06-01T10:48:49.670022,-0.08,-0.09,-0.94,51.5368475,-0.0128617
2026-06-01T10:48:49.729625,+0.25,-0.08,-0.94,51.5368475,-0.0128617
2026-06-01T10:48:49.820216,-0.08,-0.08,-1.21,51.5368475,-0.0128617
2026-06-01T10:48:49.880967,+0.24,+0.10,-1.02,51.5368475,-0.0128617
2026-06-01T10:48:49.939876,-0.15,+0.01,-1.02,51.5368475,-0.0128617
2026-06-01T10:48:50.029636,+0.33,+0.15,-0.96,51.5368475,-0.0128617
2026-06-01T10:48:50.090466,+0.11,-0.03,-1.17,51.5368475,-0.0128617
2026-06-01T10:48:50.150800,-0.18,-0.08,-1.03,51.5368475,-0.0128617
2026-06-01T10:48:50.209773,+0.00,+0.10,-1.12,51.5368475,-0.0128617
2026-06-01T10:48:50.271408,+0.27,+0.19,-1.03,51.5368475,-0.0128617
2026-06-01T10:48:50.359365,+0.12,+0.17,-1.01,51.5368692,-0.0128898
2026-06-01T10:48:50.419595,-0.20,-0.15,-1.06,51.5368692,-0.0128898
2026-06-01T10:48:50.478886,+0.17,+0.03,-0.98,51.5368692,-0.0128898
2026-06-01T10:48:50.540061,+0.23,+0.10,-1.03,51.5368692,-0.0128898
2026-06-01T10:48:50.600775,+0.13,+0.02,-0.98,51.5368692,-0.0128898
2026-06-01T10:48:50.692192,-0.18,-0.08,-1.01,51.5368692,-0.0128898
2026-06-01T10:48:50.750402,+0.33,+0.21,-1.04,51.5368692,-0.0128898
2026-06-01T10:48:50.810634,+0.09,+0.08,-0.93,51.5368692,-0.0128898
2026-06-01T10:48:50.870366,-0.10,-0.30,-1.12,51.5368692,-0.0128898
2026-06-01T10:48:50.929559,+0.27,-0.01,-0.89,51.5368692,-0.0128898
2026-06-01T10:48:51.019735,+0.26,+0.01,-0.99,51.5368692,-0.0128898
2026-06-01T10:48:51.082931,-0.10,-0.11,-1.09,51.5368692,-0.0128898
2026-06-01T10:48:51.140089,+0.40,+0.16,-0.95,51.5368692,-0.0128898
2026-06-01T10:48:51.199431,-0.16,-0.18,-1.11,51.5368692,-0.0128898
2026-06-01T10:48:51.258957,+0.31,+0.21,-1.07,51.5368692,-0.0128898
2026-06-01T10:48:51.353701,+0.23,+0.05,-0.91,51.5368933,-0.0129125
2026-06-01T10:48:51.409595,-0.19,-0.20,-1.20,51.5368933,-0.0129125
2026-06-01T10:48:51.470170,+0.14,+0.18,-0.97,51.5368933,-0.0129125
2026-06-01T10:48:51.532210,+0.13,+0.09,-0.96,51.5368933,-0.0129125
2026-06-01T10:48:51.619726,+0.02,-0.05,-0.96,51.5368933,-0.0129125
2026-06-01T10:48:51.680480,+0.19,+0.20,-0.96,51.5368933,-0.0129125
2026-06-01T10:48:51.739600,-0.03,-0.10,-0.98,51.5368933,-0.0129125
2026-06-01T10:48:51.829730,-0.11,-0.03,-1.24,51.5368933,-0.0129125
2026-06-01T10:48:51.860851,+0.30,+0.17,-1.01,51.5368933,-0.0129125
2026-06-01T10:48:51.919971,+0.14,+0.19,-1.02,51.5368933,-0.0129125
2026-06-01T10:48:52.038385,+0.01,-0.09,-0.96,51.5368933,-0.0129125
2026-06-01T10:48:52.069119,-0.05,-0.20,-0.91,51.5368933,-0.0129125
2026-06-01T10:48:52.130084,+0.29,+0.09,-0.94,51.5368933,-0.0129125
2026-06-01T10:48:52.190271,+0.06,-0.09,-0.99,51.5368933,-0.0129125
2026-06-01T10:48:52.281230,+0.17,+0.00,-0.73,51.5368933,-0.0129125
2026-06-01T10:48:52.339057,-0.22,-0.20,-1.04,51.5369192,-0.0129342
2026-06-01T10:48:52.399369,+0.28,+0.16,-1.20,51.5369192,-0.0129342
2026-06-01T10:48:52.460693,+0.43,+0.09,-1.03,51.5369192,-0.0129342
2026-06-01T10:48:52.519472,-0.15,-0.13,-1.10,51.5369192,-0.0129342
2026-06-01T10:48:52.610475,+0.07,+0.10,-1.02,51.5369192,-0.0129342
2026-06-01T10:48:52.670379,+0.27,+0.47,-0.98,51.5369192,-0.0129342
2026-06-01T10:48:52.730764,-0.08,-0.05,-0.96,51.5369192,-0.0129342
2026-06-01T10:48:52.790959,+0.06,+0.14,-0.96,51.5369192,-0.0129342
2026-06-01T10:48:52.849573,-0.15,-0.30,-1.25,51.5369192,-0.0129342
2026-06-01T10:48:52.940267,+0.48,+0.33,-0.83,51.5369192,-0.0129342
2026-06-01T10:48:53.001400,-0.03,-0.01,-1.17,51.5369192,-0.0129342
2026-06-01T10:48:53.061030,+0.20,+0.24,-1.03,51.5369192,-0.0129342
2026-06-01T10:48:53.120131,+0.33,-0.01,-1.02,51.5369192,-0.0129342
2026-06-01T10:48:53.179056,-0.19,-0.09,-0.82,51.5369192,-0.0129342
2026-06-01T10:48:53.270314,-0.00,-0.08,-1.02,51.5369192,-0.0129342
2026-06-01T10:48:53.329760,+0.03,-0.07,-0.94,51.5369192,-0.0129342
2026-06-01T10:48:53.390389,+0.21,+0.02,-0.81,51.5369462,-0.0129568
2026-06-01T10:48:53.450756,+0.01,-0.24,-1.23,51.5369462,-0.0129568
2026-06-01T10:48:53.510443,+0.14,+0.03,-1.11,51.5369462,-0.0129568
2026-06-01T10:48:53.600558,+0.57,+0.21,-0.75,51.5369462,-0.0129568
2026-06-01T10:48:53.659595,-0.10,-0.21,-0.90,51.5369462,-0.0129568
2026-06-01T10:48:53.720146,+0.03,+0.08,-1.22,51.5369462,-0.0129568
2026-06-01T10:48:53.779334,+0.37,+0.23,-0.81,51.5369462,-0.0129568
2026-06-01T10:48:53.840537,-0.36,-0.25,-1.13,51.5369462,-0.0129568
2026-06-01T10:48:53.930706,-0.19,+0.02,-0.88,51.5369462,-0.0129568
2026-06-01T10:48:53.989828,+0.19,-0.10,-1.01,51.5369462,-0.0129568
2026-06-01T10:48:54.079187,+0.07,-0.03,-1.02,51.5369462,-0.0129568
2026-06-01T10:48:54.109133,+0.22,+0.20,-1.01,51.5369462,-0.0129568
2026-06-01T10:48:54.201982,+0.04,+0.08,-1.02,51.5369462,-0.0129568
2026-06-01T10:48:54.290427,+0.19,-0.03,-0.98,51.5369462,-0.0129568
2026-06-01T10:48:54.318588,+0.11,-0.03,-1.04,51.5369462,-0.0129568
2026-06-01T10:48:54.380985,-0.17,-0.18,-1.13,51.5369719,-0.0129809
2026-06-01T10:48:54.441852,-0.04,-0.07,-1.04,51.5369719,-0.0129809
2026-06-01T10:48:54.530841,+0.13,+0.45,-1.02,51.5369719,-0.0129809
2026-06-01T10:48:54.619536,-0.05,+0.03,-0.98,51.5369719,-0.0129809
2026-06-01T10:48:54.648849,-0.08,+0.21,-1.05,51.5369719,-0.0129809
2026-06-01T10:48:54.709760,-0.09,+0.08,-1.00,51.5369719,-0.0129809
2026-06-01T10:48:54.801049,+0.22,+0.15,-0.90,51.5369719,-0.0129809
2026-06-01T10:48:54.860736,-0.08,-0.00,-1.03,51.5369719,-0.0129809
2026-06-01T10:48:54.980406,+0.03,+0.14,-1.03,51.5369719,-0.0129809
2026-06-01T10:48:54.981173,+0.16,+0.10,-1.02,51.5369719,-0.0129809
2026-06-01T10:48:55.041500,-0.12,-0.25,-0.97,51.5369719,-0.0129809
2026-06-01T10:48:55.100714,+0.23,-0.10,-0.97,51.5369719,-0.0129809
2026-06-01T10:48:55.220213,+0.26,-0.25,-0.94,51.5369719,-0.0129809
2026-06-01T10:48:55.249890,-0.20,-0.06,-1.07,51.5369719,-0.0129809
2026-06-01T10:48:55.312829,+0.28,+0.28,-1.03,51.5369719,-0.0129809
2026-06-01T10:48:55.369630,+0.28,+0.32,-0.98,51.5369948,-0.0130109
2026-06-01T10:48:55.460745,-0.14,-0.23,-1.08,51.5369948,-0.0130109
2026-06-01T10:48:55.521695,+0.20,+0.11,-0.96,51.5369948,-0.0130109
2026-06-01T10:48:55.580820,+0.40,+0.02,-0.94,51.5369948,-0.0130109
2026-06-01T10:48:55.641414,-0.22,-0.31,-1.20,51.5369948,-0.0130109
2026-06-01T10:48:55.700044,+0.12,+0.11,-1.08,51.5369948,-0.0130109
2026-06-01T10:48:55.789992,+0.01,+0.03,-1.47,51.5369948,-0.0130109
2026-06-01T10:48:55.851175,+0.02,+0.16,-1.03,51.5369948,-0.0130109
2026-06-01T10:48:55.911270,-0.03,-0.04,-0.99,51.5369948,-0.0130109
2026-06-01T10:48:55.970393,+0.43,+0.36,-0.79,51.5369948,-0.0130109
2026-06-01T10:48:56.029035,+0.12,-0.09,-1.09,51.5369948,-0.0130109
2026-06-01T10:48:56.120315,+0.60,+0.20,-1.30,51.5369948,-0.0130109
2026-06-01T10:48:56.180586,+0.38,+0.29,-0.88,51.5369948,-0.0130109
2026-06-01T10:48:56.239154,-0.21,-0.25,-0.91,51.5369948,-0.0130109
2026-06-01T10:48:56.299871,-0.19,+0.45,-1.03,51.5369948,-0.0130109
2026-06-01T10:48:56.390278,+0.06,-0.10,-1.05,51.5370164,-0.0130406
2026-06-01T10:48:56.450937,+0.02,-0.03,-1.04,51.5370164,-0.0130406
2026-06-01T10:48:56.541290,+0.15,+0.21,-0.82,51.5370164,-0.0130406
2026-06-01T10:48:56.570232,+0.32,+0.14,-0.90,51.5370164,-0.0130406
2026-06-01T10:48:56.631903,+0.06,-0.23,-1.10,51.5370164,-0.0130406
2026-06-01T10:48:56.720263,+0.32,+0.34,-1.05,51.5370164,-0.0130406
2026-06-01T10:48:56.779326,-0.02,-0.17,-1.13,51.5370164,-0.0130406
2026-06-01T10:48:56.840398,+0.20,-0.16,-1.03,51.5370164,-0.0130406
2026-06-01T10:48:56.900067,-0.01,+0.07,-0.87,51.5370164,-0.0130406
2026-06-01T10:48:56.961074,+0.02,-0.49,-0.74,51.5370164,-0.0130406
2026-06-01T10:48:57.050244,+0.27,-0.33,-1.04,51.5370164,-0.0130406
2026-06-01T10:48:57.110351,+0.05,+0.17,-1.07,51.5370164,-0.0130406
2026-06-01T10:48:57.170082,+0.27,+0.36,-0.85,51.5370164,-0.0130406
2026-06-01T10:48:57.263091,-0.08,+0.15,-1.00,51.5370164,-0.0130406
2026-06-01T10:48:57.296603,-0.01,-0.01,-1.13,51.5370164,-0.0130406
2026-06-01T10:48:57.379051,+0.05,+0.15,-1.13,51.5370403,-0.0130597
2026-06-01T10:48:57.440908,-0.08,+0.14,-1.01,51.5370403,-0.0130597
2026-06-01T10:48:57.499194,+0.22,+0.27,-0.81,51.5370403,-0.0130597
2026-06-01T10:48:57.561131,-0.08,+0.11,-0.62,51.5370403,-0.0130597
2026-06-01T10:48:57.621271,-0.06,-0.26,-1.36,51.5370403,-0.0130597
2026-06-01T10:48:57.710859,-0.21,+0.26,-1.07,51.5370403,-0.0130597
2026-06-01T10:48:57.770563,+0.10,+0.24,-1.16,51.5370403,-0.0130597
2026-06-01T10:48:57.829474,-0.05,+0.15,-1.00,51.5370403,-0.0130597
2026-06-01T10:48:57.890096,+0.12,-0.29,-0.69,51.5370403,-0.0130597
2026-06-01T10:48:57.949876,+0.05,-0.27,-0.81,51.5370403,-0.0130597
2026-06-01T10:48:58.070671,+0.22,-0.39,-1.03,51.5370403,-0.0130597
2026-06-01T10:48:58.099421,-0.02,-0.33,-1.11,51.5370403,-0.0130597
2026-06-01T10:48:58.159717,+0.00,+0.25,-1.17,51.5370403,-0.0130597
2026-06-01T10:48:58.220155,-0.04,+0.07,-0.93,51.5370403,-0.0130597
2026-06-01T10:48:58.311256,+0.42,+0.16,-1.02,51.5370403,-0.0130597
2026-06-01T10:48:58.373665,+0.09,-0.21,-0.86,51.537068,-0.0130711
2026-06-01T10:48:58.430688,+0.30,+0.14,-1.02,51.537068,-0.0130711
2026-06-01T10:48:58.489919,-0.07,-0.15,-1.18,51.537068,-0.0130711
2026-06-01T10:48:58.549658,+0.18,-0.13,-1.11,51.537068,-0.0130711
2026-06-01T10:48:58.639866,+0.50,+0.19,-0.59,51.537068,-0.0130711
2026-06-01T10:48:58.700014,-0.37,+0.03,-1.18,51.537068,-0.0130711
2026-06-01T10:48:58.789589,-0.11,-0.17,-1.27,51.537068,-0.0130711
2026-06-01T10:48:58.819240,+0.35,+0.32,-0.35,51.537068,-0.0130711
2026-06-01T10:48:58.880070,-0.36,+0.11,-1.46,51.537068,-0.0130711
2026-06-01T10:48:59.000058,+0.38,+0.14,-0.83,51.537068,-0.0130711
2026-06-01T10:48:59.029495,-0.28,+0.11,-1.05,51.537068,-0.0130711
2026-06-01T10:48:59.091031,+0.25,+0.09,-0.93,51.537068,-0.0130711
2026-06-01T10:48:59.151039,-0.22,-0.13,-1.20,51.537068,-0.0130711
2026-06-01T10:48:59.209601,+0.70,+0.32,-0.82,51.537068,-0.0130711
2026-06-01T10:48:59.300655,+0.09,-0.18,-1.07,51.537068,-0.0130711
2026-06-01T10:48:59.360896,-0.36,-0.06,-1.01,51.5370968,-0.0130812
2026-06-01T10:48:59.419522,+0.33,+0.21,-0.76,51.5370968,-0.0130812
2026-06-01T10:48:59.480104,+0.10,+0.13,-1.01,51.5370968,-0.0130812
2026-06-01T10:48:59.540185,+0.15,+0.00,-0.90,51.5370968,-0.0130812
2026-06-01T10:48:59.631068,-0.14,+0.01,-0.92,51.5370968,-0.0130812
2026-06-01T10:48:59.690172,+0.06,+0.27,-1.12,51.5370968,-0.0130812
2026-06-01T10:48:59.749197,+0.07,+0.21,-0.97,51.5370968,-0.0130812
2026-06-01T10:48:59.809143,+0.04,+0.01,-0.82,51.5370968,-0.0130812
2026-06-01T10:48:59.869762,+0.26,+0.01,-1.00,51.5370968,-0.0130812
2026-06-01T10:48:59.959697,-0.30,+0.02,-1.25,51.5370968,-0.0130812
2026-06-01T10:49:00.020092,+0.18,+0.08,-1.19,51.5370968,-0.0130812
2026-06-01T10:49:00.080938,+0.50,+0.04,-0.79,51.5370968,-0.0130812
2026-06-01T10:49:00.141448,-0.29,-0.15,-0.93,51.5370968,-0.0130812
2026-06-01T10:49:00.230593,+0.26,-0.05,-0.96,51.5370968,-0.0130812
2026-06-01T10:49:00.289869,+0.19,-0.00,-1.03,51.5370968,-0.0130812
2026-06-01T10:49:00.350548,-0.09,-0.05,-1.18,51.5371253,-0.013092
2026-06-01T10:49:00.410747,+0.11,+0.01,-0.94,51.5371253,-0.013092
2026-06-01T10:49:00.471351,+0.29,+0.07,-0.83,51.5371253,-0.013092
2026-06-01T10:49:00.559597,-0.22,-0.41,-1.10,51.5371253,-0.013092
2026-06-01T10:49:00.620261,+0.48,+0.08,-0.85,51.5371253,-0.013092
2026-06-01T10:49:00.680825,+0.39,+0.12,-1.11,51.5371253,-0.013092
2026-06-01T10:49:00.740016,-0.33,-0.21,-1.03,51.5371253,-0.013092
2026-06-01T10:49:00.830233,+0.60,+0.53,-0.94,51.5371253,-0.013092
2026-06-01T10:49:00.890971,-0.58,-0.36,-1.91,51.5371253,-0.013092
2026-06-01T10:49:00.950667,+0.67,+0.42,-0.26,51.5371253,-0.013092
2026-06-01T10:49:01.009670,-0.10,-0.02,-1.08,51.5371253,-0.013092
2026-06-01T10:49:01.070682,+0.18,-0.06,-1.02,51.5371253,-0.013092
2026-06-01T10:49:01.160407,-0.45,-0.19,-1.22,51.5371253,-0.013092
2026-06-01T10:49:01.219828,+0.41,+0.16,-0.79,51.5371253,-0.013092
2026-06-01T10:49:01.281161,+0.15,+0.25,-0.92,51.5371253,-0.013092
2026-06-01T10:49:01.338729,-0.26,-0.18,-1.36,51.5371253,-0.013092
2026-06-01T10:49:01.400444,+0.36,+0.37,-0.83,51.5371527,-0.0131066
2026-06-01T10:49:01.490315,-0.17,+0.05,-1.05,51.5371527,-0.0131066
2026-06-01T10:49:01.550820,+0.68,+0.39,-1.19,51.5371527,-0.0131066
2026-06-01T10:49:01.609347,-0.16,-0.04,-0.96,51.5371527,-0.0131066
2026-06-01T10:49:01.670423,-0.34,-0.30,-0.92,51.5371527,-0.0131066
2026-06-01T10:49:01.729260,+0.08,+0.21,-1.15,51.5371527,-0.0131066
2026-06-01T10:49:01.821194,+0.32,+0.25,-0.84,51.5371527,-0.0131066
2026-06-01T10:49:01.880389,-0.28,-0.20,-1.23,51.5371527,-0.0131066
2026-06-01T10:49:01.940468,+0.38,+0.18,-1.03,51.5371527,-0.0131066
2026-06-01T10:49:02.000693,-0.19,+0.02,-1.08,51.5371527,-0.0131066
2026-06-01T10:49:02.059399,+0.04,-0.07,-0.88,51.5371527,-0.0131066
2026-06-01T10:49:02.148825,+0.39,+0.02,-1.02,51.5371527,-0.0131066
2026-06-01T10:49:02.210036,-0.10,-0.02,-0.92,51.5371527,-0.0131066
2026-06-01T10:49:02.270474,+0.34,+0.09,-0.78,51.5371527,-0.0131066
2026-06-01T10:49:02.330213,-0.03,-0.10,-1.22,51.5371527,-0.0131066
2026-06-01T10:49:02.420504,+0.42,+0.25,-0.85,51.5371781,-0.0131237
2026-06-01T10:49:02.480691,-0.01,-0.17,-1.17,51.5371781,-0.0131237
2026-06-01T10:49:02.540173,+0.45,+0.12,-0.84,51.5371781,-0.0131237
2026-06-01T10:49:02.599541,+0.04,-0.18,-1.00,51.5371781,-0.0131237
2026-06-01T10:49:02.662604,+0.11,+0.06,-0.84,51.5371781,-0.0131237
2026-06-01T10:49:02.750532,+0.02,-0.27,-1.09,51.5371781,-0.0131237
2026-06-01T10:49:02.809871,+0.15,+0.20,-0.98,51.5371781,-0.0131237
2026-06-01T10:49:02.870331,+0.13,+0.09,-1.14,51.5371781,-0.0131237
2026-06-01T10:49:02.930352,+0.30,+0.15,-1.16,51.5371781,-0.0131237
2026-06-01T10:49:02.990656,-0.24,-0.13,-1.02,51.5371781,-0.0131237
2026-06-01T10:49:03.080417,+0.24,-0.01,-0.98,51.5371781,-0.0131237
2026-06-01T10:49:03.141694,+0.15,-0.04,-0.92,51.5371781,-0.0131237
2026-06-01T10:49:03.201452,-0.02,+0.10,-1.12,51.5371781,-0.0131237
2026-06-01T10:49:03.260165,+0.19,+0.27,-1.02,51.5371781,-0.0131237
2026-06-01T10:49:03.318736,-0.06,-0.09,-1.01,51.5371781,-0.0131237
2026-06-01T10:49:03.409561,+0.43,+0.19,-0.97,51.5372041,-0.0131412
2026-06-01T10:49:03.469993,+0.09,+0.03,-1.08,51.5372041,-0.0131412
2026-06-01T10:49:03.531313,+0.14,-0.14,-0.99,51.5372041,-0.0131412
2026-06-01T10:49:03.589442,+0.03,-0.02,-0.90,51.5372041,-0.0131412
2026-06-01T10:49:03.654635,+0.12,-0.05,-1.07,51.5372041,-0.0131412
2026-06-01T10:49:03.740079,+0.06,-0.12,-0.80,51.5372041,-0.0131412
2026-06-01T10:49:03.799862,+0.09,+0.07,-0.80,51.5372041,-0.0131412
2026-06-01T10:49:03.859897,-0.31,-0.25,-1.25,51.5372041,-0.0131412
2026-06-01T10:49:03.919782,+0.37,+0.08,-1.04,51.5372041,-0.0131412
2026-06-01T10:49:03.980824,+0.07,+0.04,-1.17,51.5372041,-0.0131412
2026-06-01T10:49:04.070921,-0.05,-0.11,-1.48,51.5372041,-0.0131412
2026-06-01T10:49:04.129989,+0.29,+0.10,-0.59,51.5372041,-0.0131412
2026-06-01T10:49:04.190306,-0.23,-0.20,-1.09,51.5372041,-0.0131412
2026-06-01T10:49:04.250146,+0.37,+0.05,-0.65,51.5372041,-0.0131412
2026-06-01T10:49:04.342577,+0.05,-0.07,-0.76,51.5372315,-0.013153
2026-06-01T10:49:04.429089,-0.32,-0.15,-1.81,51.5372315,-0.013153
2026-06-01T10:49:04.460022,+0.18,+0.13,-0.84,51.5372315,-0.013153
2026-06-01T10:49:04.551211,+0.16,+0.02,-1.02,51.5372315,-0.013153
2026-06-01T10:49:04.612270,-0.18,+0.02,-0.90,51.5372315,-0.013153
2026-06-01T10:49:04.669565,+0.14,+0.22,-1.09,51.5372315,-0.013153
2026-06-01T10:49:04.730050,+0.45,+0.00,-1.04,51.5372315,-0.013153
2026-06-01T10:49:04.821174,-0.09,-0.14,-1.33,51.5372315,-0.013153
2026-06-01T10:49:04.849450,-0.01,+0.24,-0.83,51.5372315,-0.013153
2026-06-01T10:49:04.939113,+0.07,-0.04,-0.92,51.5372315,-0.013153
2026-06-01T10:49:04.999591,-0.18,+0.08,-1.08,51.5372315,-0.013153
2026-06-01T10:49:05.060081,+0.16,+0.14,-1.06,51.5372315,-0.013153
2026-06-01T10:49:05.120560,+0.38,+0.17,-1.01,51.5372315,-0.013153
2026-06-01T10:49:05.179929,+0.21,+0.39,-0.89,51.5372315,-0.013153
2026-06-01T10:49:05.270526,-0.31,-0.07,-0.92,51.5372315,-0.013153
2026-06-01T10:49:05.329645,-0.06,+0.07,-0.97,51.5372315,-0.013153
2026-06-01T10:49:05.390798,+0.21,-0.06,-1.28,51.5372605,-0.013162
2026-06-01T10:49:05.449318,-0.02,-0.11,-0.95,51.5372605,-0.013162
2026-06-01T10:49:05.509230,+0.02,-0.09,-0.80,51.5372605,-0.013162
2026-06-01T10:49:05.604394,+0.22,+0.05,-1.26,51.5372605,-0.013162
2026-06-01T10:49:05.659371,+0.40,+0.24,-0.84,51.5372605,-0.013162
2026-06-01T10:49:05.719870,+0.09,-0.01,-0.83,51.5372605,-0.013162
2026-06-01T10:49:05.780287,-0.06,-0.00,-1.12,51.5372605,-0.013162
2026-06-01T10:49:05.838972,+0.29,-0.01,-0.95,51.5372605,-0.013162
2026-06-01T10:49:05.930358,+0.06,-0.12,-1.14,51.5372605,-0.013162
2026-06-01T10:49:05.989296,+0.13,-0.07,-1.06,51.5372605,-0.013162
2026-06-01T10:49:06.049760,-0.00,+0.09,-1.13,51.5372605,-0.013162
2026-06-01T10:49:06.110646,+0.08,+0.23,-1.08,51.5372605,-0.013162
2026-06-01T10:49:06.172014,+0.27,+0.02,-1.01,51.5372605,-0.013162
2026-06-01T10:49:06.260048,+0.14,+0.17,-1.04,51.5372605,-0.013162
2026-06-01T10:49:06.323402,+0.02,-0.03,-1.04,51.5372605,-0.013162
2026-06-01T10:49:06.379805,+0.07,+0.01,-1.04,51.5372889,-0.0131725
2026-06-01T10:49:06.470700,-0.22,-0.15,-1.00,51.5372889,-0.0131725
2026-06-01T10:49:06.530317,+0.30,+0.33,-0.99,51.5372889,-0.0131725
2026-06-01T10:49:06.589596,+0.13,-0.02,-1.05,51.5372889,-0.0131725
2026-06-01T10:49:06.650769,+0.15,-0.10,-0.94,51.5372889,-0.0131725
2026-06-01T10:49:06.708953,-0.02,-0.08,-0.95,51.5372889,-0.0131725
2026-06-01T10:49:06.769819,+0.20,+0.08,-1.03,51.5372889,-0.0131725
2026-06-01T10:49:06.861560,+0.01,-0.03,-0.85,51.5372889,-0.0131725
2026-06-01T10:49:06.920448,+0.18,+0.12,-0.93,51.5372889,-0.0131725
2026-06-01T10:49:06.983511,+0.00,-0.05,-1.08,51.5372889,-0.0131725
2026-06-01T10:49:07.043302,-0.15,-0.17,-1.13,51.5372889,-0.0131725
2026-06-01T10:49:07.099950,+0.24,+0.03,-0.97,51.5372889,-0.0131725
2026-06-01T10:49:07.189840,+0.09,-0.01,-1.09,51.5372889,-0.0131725
2026-06-01T10:49:07.253213,-0.02,-0.16,-0.99,51.5372889,-0.0131725
2026-06-01T10:49:07.310529,+0.36,+0.25,-0.99,51.5372889,-0.0131725
2026-06-01T10:49:07.368923,-0.28,-0.18,-1.08,51.5373163,-0.0131844
2026-06-01T10:49:07.429344,-0.17,-0.23,-1.25,51.5373163,-0.0131844
2026-06-01T10:49:07.519208,+0.51,+0.39,-0.85,51.5373163,-0.0131844
2026-06-01T10:49:07.579977,+0.01,-0.11,-1.13,51.5373163,-0.0131844
2026-06-01T10:49:07.640176,+0.05,+0.01,-0.99,51.5373163,-0.0131844
2026-06-01T10:49:07.700238,+0.27,+0.10,-0.92,51.5373163,-0.0131844
2026-06-01T10:49:07.758901,+0.33,+0.09,-1.09,51.5373163,-0.0131844
2026-06-01T10:49:07.851431,-0.04,-0.14,-0.92,51.5373163,-0.0131844
2026-06-01T10:49:07.912173,+0.22,+0.01,-1.02,51.5373163,-0.0131844
2026-06-01T10:49:07.970507,-0.13,+0.02,-1.03,51.5373163,-0.0131844
2026-06-01T10:49:08.030641,+0.29,+0.09,-0.81,51.5373163,-0.0131844
2026-06-01T10:49:08.090367,+0.10,+0.06,-1.05,51.5373163,-0.0131844
2026-06-01T10:49:08.181132,+0.09,+0.03,-1.09,51.5373163,-0.0131844
2026-06-01T10:49:08.239605,+0.19,+0.09,-1.01,51.5373163,-0.0131844
2026-06-01T10:49:08.301294,-0.09,-0.14,-1.13,51.5373163,-0.0131844
2026-06-01T10:49:08.359467,+0.26,+0.16,-0.93,51.5373435,-0.0131888
2026-06-01T10:49:08.455985,+0.21,+0.11,-0.89,51.5373435,-0.0131888
2026-06-01T10:49:08.510351,-0.32,+0.03,-1.07,51.5373435,-0.0131888
2026-06-01T10:49:08.569758,+0.27,+0.25,-0.92,51.5373435,-0.0131888
2026-06-01T10:49:08.628988,+0.13,-0.08,-0.96,51.5373435,-0.0131888
2026-06-01T10:49:08.691980,-0.07,+0.26,-1.00,51.5373435,-0.0131888
2026-06-01T10:49:08.780105,+0.15,+0.10,-0.98,51.5373435,-0.0131888
2026-06-01T10:49:08.840510,-0.16,-0.10,-1.14,51.5373435,-0.0131888
2026-06-01T10:49:08.929747,+0.38,+0.20,-0.89,51.5373435,-0.0131888
2026-06-01T10:49:08.964388,-0.19,-0.19,-1.05,51.5373435,-0.0131888
2026-06-01T10:49:09.019817,+0.42,+0.10,-0.94,51.5373435,-0.0131888
2026-06-01T10:49:09.109505,-0.16,-0.06,-0.96,51.5373435,-0.0131888
2026-06-01T10:49:09.172778,+0.38,+0.17,-0.91,51.5373435,-0.0131888
2026-06-01T10:49:09.230333,+0.18,+0.03,-0.56,51.5373435,-0.0131888
2026-06-01T10:49:09.289424,-0.20,-0.28,-1.75,51.5373435,-0.0131888
2026-06-01T10:49:09.349014,+0.51,+0.40,-0.58,51.5373707,-0.0131942
2026-06-01T10:49:09.441017,-0.04,-0.16,-1.02,51.5373707,-0.0131942
2026-06-01T10:49:09.499596,-0.17,-0.11,-1.00,51.5373707,-0.0131942
2026-06-01T10:49:09.561556,+0.00,-0.28,-0.86,51.5373707,-0.0131942
2026-06-01T10:49:09.620233,+0.08,-0.39,-0.81,51.5373707,-0.0131942
2026-06-01T10:49:09.679538,+1.36,+0.46,-1.23,51.5373707,-0.0131942
2026-06-01T10:49:09.771194,-0.00,+0.27,-1.16,51.5373707,-0.0131942
2026-06-01T10:49:09.830419,-0.11,-0.15,-1.05,51.5373707,-0.0131942
2026-06-01T10:49:09.891108,+0.27,+0.26,-1.01,51.5373707,-0.0131942
2026-06-01T10:49:09.950066,-0.15,-0.04,-1.15,51.5373707,-0.0131942
2026-06-01T10:49:10.011145,+0.04,+0.15,-1.12,51.5373707,-0.0131942
2026-06-01T10:49:10.100112,+0.25,+0.16,-0.94,51.5373707,-0.0131942
2026-06-01T10:49:10.160361,+0.06,+0.09,-0.93,51.5373707,-0.0131942
2026-06-01T10:49:10.220594,+0.30,+0.17,-1.03,51.5373707,-0.0131942
2026-06-01T10:49:10.282050,+0.12,-0.00,-1.03,51.5373707,-0.0131942
2026-06-01T10:49:10.340138,+0.13,-0.06,-1.00,51.5373985,-0.0131994
2026-06-01T10:49:10.430789,-0.02,-0.15,-1.21,51.5373985,-0.0131994
2026-06-01T10:49:10.489416,+0.24,+0.19,-0.74,51.5373985,-0.0131994
2026-06-01T10:49:10.549755,+0.18,-0.06,-1.00,51.5373985,-0.0131994
2026-06-01T10:49:10.670023,-0.21,-0.16,-0.95,51.5373985,-0.0131994
2026-06-01T10:49:10.699258,+0.11,-0.22,-0.87,51.5373985,-0.0131994
2026-06-01T10:49:10.760938,+0.43,+0.33,-0.97,51.5373985,-0.0131994
2026-06-01T10:49:10.820618,-0.04,-0.27,-1.04,51.5373985,-0.0131994
2026-06-01T10:49:10.880098,+0.17,+0.07,-1.02,51.5373985,-0.0131994
2026-06-01T10:49:10.972161,+0.17,+0.03,-0.95,51.5373985,-0.0131994
2026-06-01T10:49:11.029995,+0.16,+0.03,-1.10,51.5373985,-0.0131994
2026-06-01T10:49:11.090641,-0.09,+0.28,-0.95,51.5373985,-0.0131994
2026-06-01T10:49:11.179517,+0.24,+0.20,-0.94,51.5373985,-0.0131994
2026-06-01T10:49:11.208833,+0.36,+0.13,-0.87,51.5373985,-0.0131994
2026-06-01T10:49:11.300318,+0.38,+0.16,-1.00,51.5373985,-0.0131994
2026-06-01T10:49:11.358397,-0.06,+0.01,-0.89,51.5374273,-0.0132002
2026-06-01T10:49:11.420070,+0.40,+0.10,-1.19,51.5374273,-0.0132002
2026-06-01T10:49:11.486998,+0.07,+0.01,-0.81,51.5374273,-0.0132002
2026-06-01T10:49:11.539924,-0.03,-0.28,-0.91,51.5374273,-0.0132002
2026-06-01T10:49:11.630240,+0.37,-0.14,-1.00,51.5374273,-0.0132002
2026-06-01T10:49:11.691915,+0.03,-0.00,-1.15,51.5374273,-0.0132002
2026-06-01T10:49:11.748973,+0.11,+0.04,-1.17,51.5374273,-0.0132002
2026-06-01T10:49:11.810238,-0.20,+0.13,-0.98,51.5374273,-0.0132002
2026-06-01T10:49:11.869852,+0.28,+0.37,-0.90,51.5374273,-0.0132002
2026-06-01T10:49:11.961184,+0.11,+0.11,-0.90,51.5374273,-0.0132002
2026-06-01T10:49:12.021429,-0.00,-0.21,-0.90,51.5374273,-0.0132002
2026-06-01T10:49:12.080235,+0.29,+0.09,-1.05,51.5374273,-0.0132002
2026-06-01T10:49:12.140720,+0.19,+0.07,-0.94,51.5374273,-0.0132002
2026-06-01T10:49:12.200391,-0.23,-0.05,-0.97,51.5374273,-0.0132002
2026-06-01T10:49:12.289923,-0.07,+0.04,-0.99,51.5374273,-0.0132002
2026-06-01T10:49:12.350899,+0.20,+0.39,-0.72,51.5374565,-0.0131976
2026-06-01T10:49:12.409197,-0.33,-0.05,-1.44,51.5374565,-0.0131976
2026-06-01T10:49:12.470108,+0.42,+0.19,-0.79,51.5374565,-0.0131976
2026-06-01T10:49:12.560789,-0.12,-0.21,-0.94,51.5374565,-0.0131976
2026-06-01T10:49:12.619991,-0.22,-0.14,-0.95,51.5374565,-0.0131976
2026-06-01T10:49:12.681313,+0.58,+0.24,-1.17,51.5374565,-0.0131976
2026-06-01T10:49:12.741911,-0.06,-0.12,-0.89,51.5374565,-0.0131976
2026-06-01T10:49:12.800493,-0.08,-0.06,-1.09,51.5374565,-0.0131976
2026-06-01T10:49:12.920399,+0.32,+0.01,-0.80,51.5374565,-0.0131976
2026-06-01T10:49:12.949790,-0.20,-0.17,-1.06,51.5374565,-0.0131976
2026-06-01T10:49:13.011106,+0.37,+0.17,-0.88,51.5374565,-0.0131976
2026-06-01T10:49:13.069565,+0.05,-0.10,-1.11,51.5374565,-0.0131976
2026-06-01T10:49:13.129362,-0.34,-0.47,-0.98,51.5374565,-0.0131976
2026-06-01T10:49:13.220289,+0.13,-0.07,-1.10,51.5374565,-0.0131976
2026-06-01T10:49:13.280955,+0.24,+0.13,-1.06,51.5374565,-0.0131976
2026-06-01T10:49:13.338911,+0.17,+0.07,-1.04,51.5374853,-0.0131952
2026-06-01T10:49:13.401557,-0.20,+0.38,-1.02,51.5374853,-0.0131952
2026-06-01T10:49:13.459483,-0.02,+0.01,-0.99,51.5374853,-0.0131952
2026-06-01T10:49:13.550675,+0.28,+0.07,-1.06,51.5374853,-0.0131952
2026-06-01T10:49:13.618700,+0.07,+0.15,-0.88,51.5374853,-0.0131952
2026-06-01T10:49:13.672044,+0.05,-0.09,-0.91,51.5374853,-0.0131952
2026-06-01T10:49:13.730241,-0.06,-0.14,-1.10,51.5374853,-0.0131952
2026-06-01T10:49:13.791059,+0.38,+0.34,-0.94,51.5374853,-0.0131952
2026-06-01T10:49:13.880633,-0.08,+0.03,-1.07,51.5374853,-0.0131952
2026-06-01T10:49:13.939356,+0.02,-0.08,-0.84,51.5374853,-0.0131952
2026-06-01T10:49:14.001679,+0.46,+0.18,-1.03,51.5374853,-0.0131952
2026-06-01T10:49:14.062700,-0.04,-0.13,-1.25,51.5374853,-0.0131952
2026-06-01T10:49:14.121093,+0.34,+0.03,-0.91,51.5374853,-0.0131952
2026-06-01T10:49:14.210666,-0.09,-0.20,-0.99,51.5374853,-0.0131952
2026-06-01T10:49:14.271294,+0.05,+0.10,-0.96,51.5374853,-0.0131952
2026-06-01T10:49:14.332729,+0.26,+0.10,-0.94,51.5374853,-0.0131952
2026-06-01T10:49:14.391232,+0.13,+0.13,-1.01,51.5375126,-0.0131977
2026-06-01T10:49:14.451116,-0.06,-0.07,-1.11,51.5375126,-0.0131977
2026-06-01T10:49:14.539891,+0.12,+0.08,-1.06,51.5375126,-0.0131977
2026-06-01T10:49:14.600126,+0.00,+0.05,-1.23,51.5375126,-0.0131977
2026-06-01T10:49:14.660082,+0.14,+0.26,-0.92,51.5375126,-0.0131977
2026-06-01T10:49:14.720176,+0.13,-0.04,-1.04,51.5375126,-0.0131977
2026-06-01T10:49:14.810101,+0.17,+0.08,-1.25,51.5375126,-0.0131977
2026-06-01T10:49:14.870861,+0.22,+0.06,-0.83,51.5375126,-0.0131977
2026-06-01T10:49:14.931152,-0.12,-0.11,-1.05,51.5375126,-0.0131977
2026-06-01T10:49:14.990720,+0.22,+0.22,-0.91,51.5375126,-0.0131977
2026-06-01T10:49:15.051134,-0.52,-0.19,-1.00,51.5375126,-0.0131977
2026-06-01T10:49:15.141269,+0.12,+0.21,-0.84,51.5375126,-0.0131977
2026-06-01T10:49:15.201011,-0.01,-0.14,-1.03,51.5375126,-0.0131977
2026-06-01T10:49:15.259576,-0.03,-0.18,-1.19,51.5375126,-0.0131977
2026-06-01T10:49:15.318464,+0.49,+0.41,-0.72,51.5375126,-0.0131977
2026-06-01T10:49:15.379333,-0.05,-0.12,-1.15,51.5375418,-0.0132082
2026-06-01T10:49:15.470275,-0.05,-0.22,-1.07,51.5375418,-0.0132082
2026-06-01T10:49:15.530290,+0.00,+0.03,-1.01,51.5375418,-0.0132082
2026-06-01T10:49:15.591380,+0.43,+0.09,-1.01,51.5375418,-0.0132082
2026-06-01T10:49:15.650507,+0.22,-0.07,-0.93,51.5375418,-0.0132082
2026-06-01T10:49:15.710407,-0.27,+0.08,-1.03,51.5375418,-0.0132082
2026-06-01T10:49:15.799947,-0.06,+0.16,-1.15,51.5375418,-0.0132082
2026-06-01T10:49:15.895764,+0.01,+0.10,-0.99,51.5375418,-0.0132082
2026-06-01T10:49:15.919101,-0.01,+0.01,-0.99,51.5375418,-0.0132082
2026-06-01T10:49:15.979427,+0.00,-0.01,-0.92,51.5375418,-0.0132082
2026-06-01T10:49:16.039210,+0.24,+0.01,-1.16,51.5375418,-0.0132082
2026-06-01T10:49:16.130582,+0.17,+0.18,-1.09,51.5375418,-0.0132082
2026-06-01T10:49:16.190103,+0.19,+0.13,-0.84,51.5375418,-0.0132082
2026-06-01T10:49:16.251994,-0.26,-0.08,-1.30,51.5375418,-0.0132082
2026-06-01T10:49:16.313973,+0.20,+0.18,-0.90,51.5375418,-0.0132082
2026-06-01T10:49:16.371231,+0.26,+0.03,-1.16,51.5375688,-0.0132281
2026-06-01T10:49:16.459867,+0.17,-0.15,-1.10,51.5375688,-0.0132281
2026-06-01T10:49:16.520616,+0.21,-0.09,-0.97,51.5375688,-0.0132281
2026-06-01T10:49:16.582253,+0.00,+0.04,-1.13,51.5375688,-0.0132281
2026-06-01T10:49:16.672035,+0.20,-0.04,-1.01,51.5375688,-0.0132281
2026-06-01T10:49:16.730070,+0.14,+0.13,-0.94,51.5375688,-0.0132281
2026-06-01T10:49:16.791340,+0.38,+0.19,-0.83,51.5375688,-0.0132281
2026-06-01T10:49:16.850350,-0.02,-0.02,-1.08,51.5375688,-0.0132281
2026-06-01T10:49:16.909923,-0.00,-0.01,-1.14,51.5375688,-0.0132281
2026-06-01T10:49:17.001097,+0.06,-0.00,-1.05,51.5375688,-0.0132281
2026-06-01T10:49:17.059837,+0.14,+0.05,-0.89,51.5375688,-0.0132281
2026-06-01T10:49:17.121489,+0.00,-0.01,-1.09,51.5375688,-0.0132281
2026-06-01T10:49:17.180158,+0.59,+0.34,-0.69,51.5375688,-0.0132281
2026-06-01T10:49:17.242402,+0.12,+0.14,-0.97,51.5375688,-0.0132281
2026-06-01T10:49:17.328876,-0.13,-0.22,-1.02,51.5375688,-0.0132281
2026-06-01T10:49:17.390768,+0.39,+0.26,-1.04,51.5375967,-0.0132549
2026-06-01T10:49:17.450306,+0.20,+0.24,-0.97,51.5375967,-0.0132549
2026-06-01T10:49:17.510477,-0.38,-0.08,-1.14,51.5375967,-0.0132549
2026-06-01T10:49:17.572223,+0.55,+0.14,-0.91,51.5375967,-0.0132549
2026-06-01T10:49:17.661475,-0.20,-0.30,-0.88,51.5375967,-0.0132549
2026-06-01T10:49:17.720223,+0.02,-0.30,-1.29,51.5375967,-0.0132549
2026-06-01T10:49:17.779201,+0.41,+0.23,-0.86,51.5375967,-0.0132549
2026-06-01T10:49:17.841116,-0.07,+0.06,-1.16,51.5375967,-0.0132549
2026-06-01T10:49:17.899828,+0.15,+0.27,-0.95,51.5375967,-0.0132549
2026-06-01T10:49:17.990545,+0.20,+0.46,-0.95,51.5375967,-0.0132549
2026-06-01T10:49:18.050854,+0.12,-0.06,-1.04,51.5375967,-0.0132549
2026-06-01T10:49:18.110344,+0.07,-0.00,-0.86,51.5375967,-0.0132549
2026-06-01T10:49:18.169867,-0.26,-0.32,-0.90,51.5375967,-0.0132549
2026-06-01T10:49:18.230844,-0.02,-0.04,-1.12,51.5375967,-0.0132549
2026-06-01T10:49:18.321869,+0.38,+0.12,-1.17,51.5375967,-0.0132549
2026-06-01T10:49:18.381129,+0.03,+0.17,-0.86,51.5376225,-0.0132833
2026-06-01T10:49:18.441841,-0.22,-0.40,-1.17,51.5376225,-0.0132833
2026-06-01T10:49:18.500017,+0.50,+0.25,-0.93,51.5376225,-0.0132833
2026-06-01T10:49:18.563911,+0.09,+0.03,-1.05,51.5376225,-0.0132833
2026-06-01T10:49:18.652447,-0.12,-0.06,-0.93,51.5376225,-0.0132833
2026-06-01T10:49:18.710193,+0.07,-0.04,-1.06,51.5376225,-0.0132833
2026-06-01T10:49:18.769705,+0.21,-0.15,-0.93,51.5376225,-0.0132833
2026-06-01T10:49:18.829303,+0.06,-0.11,-0.91,51.5376225,-0.0132833
2026-06-01T10:49:18.919332,-0.11,-0.18,-1.19,51.5376225,-0.0132833
2026-06-01T10:49:18.979873,+0.15,-0.04,-0.79,51.5376225,-0.0132833
2026-06-01T10:49:19.040413,+0.14,-0.00,-1.03,51.5376225,-0.0132833
2026-06-01T10:49:19.098996,-0.13,-0.16,-1.01,51.5376225,-0.0132833
2026-06-01T10:49:19.159057,+0.10,+0.12,-1.16,51.5376225,-0.0132833
2026-06-01T10:49:19.249054,+0.39,+0.27,-0.96,51.5376225,-0.0132833
2026-06-01T10:49:19.312870,-0.21,-0.19,-1.04,51.5376225,-0.0132833
2026-06-01T10:49:19.372022,-0.15,+0.19,-1.03,51.537645,-0.0133128
2026-06-01T10:49:19.431373,+0.43,+0.45,-0.97,51.537645,-0.0133128
2026-06-01T10:49:19.489928,-0.38,-0.28,-0.97,51.537645,-0.0133128
2026-06-01T10:49:19.580617,-0.00,+0.15,-0.91,51.537645,-0.0133128
2026-06-01T10:49:19.639072,+0.37,+0.09,-0.92,51.537645,-0.0133128
2026-06-01T10:49:19.700525,+0.14,+0.11,-0.92,51.537645,-0.0133128
2026-06-01T10:49:19.763899,-0.31,-0.25,-1.28,51.537645,-0.0133128
2026-06-01T10:49:19.819397,+0.53,+0.39,-0.83,51.537645,-0.0133128
2026-06-01T10:49:19.911112,-0.17,-0.11,-1.15,51.537645,-0.0133128
2026-06-01T10:49:19.971047,-0.08,-0.17,-1.03,51.537645,-0.0133128
2026-06-01T10:49:20.030735,+0.42,+0.19,-0.86,51.537645,-0.0133128
2026-06-01T10:49:20.090837,-0.16,-0.32,-1.04,51.537645,-0.0133128
2026-06-01T10:49:20.151406,+0.18,+0.08,-1.04,51.537645,-0.0133128
2026-06-01T10:49:20.240855,+0.27,+0.08,-0.92,51.537645,-0.0133128
2026-06-01T10:49:20.301683,-0.37,-0.26,-1.15,51.537645,-0.0133128
2026-06-01T10:49:20.359848,+0.23,+0.10,-1.03,51.5376679,-0.0133455
2026-06-01T10:49:20.420663,+0.24,+0.08,-1.01,51.5376679,-0.0133455
2026-06-01T10:49:20.479276,+0.08,-0.08,-0.93,51.5376679,-0.0133455
2026-06-01T10:49:20.569832,-0.22,-0.20,-1.08,51.5376679,-0.0133455
2026-06-01T10:49:20.628197,+0.52,+0.25,-1.00,51.5376679,-0.0133455
2026-06-01T10:49:20.688213,-0.23,-0.24,-1.18,51.5376679,-0.0133455
2026-06-01T10:49:20.750078,-0.19,-0.04,-1.10,51.5376679,-0.0133455
2026-06-01T10:49:20.839550,+0.29,+0.15,-0.98,51.5376679,-0.0133455
2026-06-01T10:49:20.900168,+0.23,+0.32,-0.79,51.5376679,-0.0133455
2026-06-01T10:49:20.961653,-0.23,-0.28,-1.13,51.5376679,-0.0133455
2026-06-01T10:49:21.020974,+0.55,+0.37,-1.16,51.5376679,-0.0133455
2026-06-01T10:49:21.110096,+0.16,-0.02,-0.97,51.5376679,-0.0133455
2026-06-01T10:49:21.170505,-0.10,-0.04,-1.22,51.5376679,-0.0133455
2026-06-01T10:49:21.230589,+0.19,+0.04,-0.72,51.5376679,-0.0133455
2026-06-01T10:49:21.327793,-0.03,-0.16,-0.99,51.5376679,-0.0133455
2026-06-01T10:49:21.349599,-0.16,-0.27,-1.08,51.5376921,-0.013374
2026-06-01T10:49:21.412394,+0.51,+0.19,-1.07,51.5376921,-0.013374
2026-06-01T10:49:21.531737,+0.53,+0.20,-0.95,51.5376921,-0.013374
2026-06-01T10:49:21.562952,-0.02,-0.04,-1.02,51.5376921,-0.013374
2026-06-01T10:49:21.620728,-0.06,-0.08,-1.22,51.5376921,-0.013374
2026-06-01T10:49:21.680675,+0.28,+0.09,-0.75,51.5376921,-0.013374
2026-06-01T10:49:21.770843,+0.11,-0.13,-1.06,51.5376921,-0.013374
2026-06-01T10:49:21.861064,-0.25,-0.34,-0.94,51.5376921,-0.013374
2026-06-01T10:49:21.890865,+0.02,-0.35,-1.05,51.5376921,-0.013374
2026-06-01T10:49:21.950321,-0.09,+0.01,-0.77,51.5376921,-0.013374
2026-06-01T10:49:22.008689,+0.43,+0.18,-0.86,51.5376921,-0.013374
2026-06-01T10:49:22.100691,+0.03,+0.10,-1.01,51.5376921,-0.013374
2026-06-01T10:49:22.159916,-0.22,-0.24,-1.04,51.5376921,-0.013374
2026-06-01T10:49:22.220638,+0.18,+0.16,-0.84,51.5376921,-0.013374
2026-06-01T10:49:22.281180,+0.16,+0.06,-0.93,51.5376921,-0.013374
2026-06-01T10:49:22.340740,-0.06,+0.03,-1.09,51.537719,-0.0133912
2026-06-01T10:49:22.429800,+0.03,+0.11,-1.00,51.537719,-0.0133912
2026-06-01T10:49:22.490240,+0.09,-0.05,-1.06,51.537719,-0.0133912
2026-06-01T10:49:22.550215,-0.06,-0.21,-1.09,51.537719,-0.0133912
2026-06-01T10:49:22.610563,+0.31,+0.14,-1.06,51.537719,-0.0133912
2026-06-01T10:49:22.670313,+0.33,+0.25,-1.02,51.537719,-0.0133912
2026-06-01T10:49:22.761734,-0.15,-0.07,-1.03,51.537719,-0.0133912
2026-06-01T10:49:22.820980,+0.28,+0.12,-1.01,51.537719,-0.0133912
2026-06-01T10:49:22.879955,+0.20,+0.02,-1.02,51.537719,-0.0133912
2026-06-01T10:49:22.940219,+0.10,-0.04,-0.79,51.537719,-0.0133912
2026-06-01T10:49:23.031055,+0.31,+0.13,-0.93,51.537719,-0.0133912
2026-06-01T10:49:23.091600,+0.07,-0.10,-1.09,51.537719,-0.0133912
2026-06-01T10:49:23.151894,+0.20,+0.11,-0.95,51.537719,-0.0133912
2026-06-01T10:49:23.209415,-0.10,-0.05,-1.09,51.537719,-0.0133912
2026-06-01T10:49:23.269250,-0.24,-0.16,-1.18,51.537719,-0.0133912
2026-06-01T10:49:23.359442,+0.04,+0.03,-0.97,51.5377469,-0.0134034
2026-06-01T10:49:23.420069,+0.25,+0.15,-0.64,51.5377469,-0.0134034
2026-06-01T10:49:23.479887,+0.03,-0.07,-1.20,51.5377469,-0.0134034
2026-06-01T10:49:23.570610,+0.27,-0.01,-1.13,51.5377469,-0.0134034
2026-06-01T10:49:23.599745,+0.05,+0.00,-0.99,51.5377469,-0.0134034
2026-06-01T10:49:23.691521,+0.24,-0.13,-1.04,51.5377469,-0.0134034
2026-06-01T10:49:23.749446,+0.24,-0.06,-0.83,51.5377469,-0.0134034
2026-06-01T10:49:23.811427,-0.30,-0.10,-1.05,51.5377469,-0.0134034
2026-06-01T10:49:23.869855,+0.09,-0.10,-1.11,51.5377469,-0.0134034
2026-06-01T10:49:23.929824,+0.40,+0.04,-1.20,51.5377469,-0.0134034
2026-06-01T10:49:24.021381,+0.02,-0.05,-0.83,51.5377469,-0.0134034
2026-06-01T10:49:24.080365,+0.10,-0.08,-0.95,51.5377469,-0.0134034
2026-06-01T10:49:24.139861,+0.26,+0.01,-0.86,51.5377469,-0.0134034
2026-06-01T10:49:24.200370,+0.04,-0.08,-1.05,51.5377469,-0.0134034
2026-06-01T10:49:24.260040,+0.20,-0.05,-1.02,51.5377469,-0.0134034
2026-06-01T10:49:24.350384,+0.27,-0.09,-0.94,51.5377745,-0.0134067
2026-06-01T10:49:24.411255,-0.10,-0.18,-0.97,51.5377745,-0.0134067
2026-06-01T10:49:24.471122,-0.13,+0.03,-0.91,51.5377745,-0.0134067
2026-06-01T10:49:24.531030,+0.29,+0.13,-1.07,51.5377745,-0.0134067
2026-06-01T10:49:24.620457,+0.16,+0.04,-1.01,51.5377745,-0.0134067
2026-06-01T10:49:24.680350,-0.05,-0.05,-1.06,51.5377745,-0.0134067
2026-06-01T10:49:24.739244,+0.53,+0.12,-0.94,51.5377745,-0.0134067
2026-06-01T10:49:24.830318,+0.10,-0.03,-0.81,51.5377745,-0.0134067
2026-06-01T10:49:24.860330,+0.15,+0.01,-1.05,51.5377745,-0.0134067
2026-06-01T10:49:24.949912,+0.17,-0.16,-0.89,51.5377745,-0.0134067
2026-06-01T10:49:25.010055,+0.02,-0.04,-1.13,51.5377745,-0.0134067
2026-06-01T10:49:25.068595,-0.11,-0.19,-1.06,51.5377745,-0.0134067
2026-06-01T10:49:25.128827,+0.34,+0.09,-1.03,51.5377745,-0.0134067
2026-06-01T10:49:25.189762,+0.16,+0.14,-0.91,51.5377745,-0.0134067
2026-06-01T10:49:25.281928,+0.16,+0.05,-1.01,51.5377745,-0.0134067
2026-06-01T10:49:25.339216,+0.08,+0.11,-1.02,51.5377745,-0.0134067
2026-06-01T10:49:25.400498,-0.07,-0.01,-1.13,51.5378031,-0.0133999
2026-06-01T10:49:25.460813,+0.33,+0.25,-1.12,51.5378031,-0.0133999
2026-06-01T10:49:25.518796,+0.10,-0.11,-0.89,51.5378031,-0.0133999
2026-06-01T10:49:25.613549,+0.01,-0.11,-0.97,51.5378031,-0.0133999
2026-06-01T10:49:25.670614,+0.14,-0.07,-0.93,51.5378031,-0.0133999
2026-06-01T10:49:25.729384,+0.22,+0.04,-1.14,51.5378031,-0.0133999
2026-06-01T10:49:25.790318,-0.01,+0.11,-1.03,51.5378031,-0.0133999
2026-06-01T10:49:25.849560,+0.47,+0.09,-0.92,51.5378031,-0.0133999
2026-06-01T10:49:25.939805,-0.11,-0.22,-0.95,51.5378031,-0.0133999
2026-06-01T10:49:25.998740,+0.12,-0.01,-0.97,51.5378031,-0.0133999
2026-06-01T10:49:26.060217,+0.21,+0.09,-1.00,51.5378031,-0.0133999
2026-06-01T10:49:26.120011,+0.21,-0.05,-1.04,51.5378031,-0.0133999
2026-06-01T10:49:26.180867,-0.04,-0.10,-0.97,51.5378031,-0.0133999
2026-06-01T10:49:26.271082,+0.17,-0.01,-1.00,51.5378031,-0.0133999
2026-06-01T10:49:26.330489,+0.24,+0.11,-0.97,51.5378031,-0.0133999
2026-06-01T10:49:26.391790,-0.20,-0.12,-1.03,51.5378305,-0.0133834
2026-06-01T10:49:26.450902,+0.41,+0.15,-0.90,51.5378305,-0.0133834
2026-06-01T10:49:26.510222,-0.07,-0.12,-1.00,51.5378305,-0.0133834
2026-06-01T10:49:26.600985,+0.18,+0.09,-1.00,51.5378305,-0.0133834
2026-06-01T10:49:26.660140,+0.21,+0.15,-0.83,51.5378305,-0.0133834
2026-06-01T10:49:26.750415,-0.10,-0.04,-1.09,51.5378305,-0.0133834
2026-06-01T10:49:26.778430,+0.02,+0.02,-1.00,51.5378305,-0.0133834
2026-06-01T10:49:26.870096,+0.22,+0.15,-1.12,51.5378305,-0.0133834
2026-06-01T10:49:26.929589,+0.04,+0.04,-0.91,51.5378305,-0.0133834
2026-06-01T10:49:26.990698,+0.03,-0.09,-0.94,51.5378305,-0.0133834
2026-06-01T10:49:27.050371,+0.08,+0.01,-0.85,51.5378305,-0.0133834
2026-06-01T10:49:27.111359,+0.08,-0.17,-1.25,51.5378305,-0.0133834
2026-06-01T10:49:27.200466,+0.25,+0.04,-0.96,51.5378305,-0.0133834
2026-06-01T10:49:27.259836,-0.11,+0.05,-0.85,51.5378305,-0.0133834
2026-06-01T10:49:27.320568,+0.09,+0.02,-1.09,51.5378305,-0.0133834
2026-06-01T10:49:27.381,+0.04,-0.19,-1.11,51.5378566,-0.013361
2026-06-01T10:49:27.440535,+0.13,-0.08,-0.96,51.5378566,-0.013361
2026-06-01T10:49:27.531512,-0.07,-0.02,-1.03,51.5378566,-0.013361
2026-06-01T10:49:27.590116,-0.05,-0.18,-0.85,51.5378566,-0.013361
2026-06-01T10:49:27.650771,+0.24,-0.09,-0.95,51.5378566,-0.013361
2026-06-01T10:49:27.710870,+0.24,+0.06,-0.96,51.5378566,-0.013361
2026-06-01T10:49:27.800115,-0.04,-0.00,-1.12,51.5378566,-0.013361
2026-06-01T10:49:27.890560,+0.32,-0.29,-0.86,51.5378566,-0.013361
2026-06-01T10:49:27.918330,+0.12,-0.09,-1.00,51.5378566,-0.013361
2026-06-01T10:49:27.979933,-0.01,+0.23,-1.01,51.5378566,-0.013361
2026-06-01T10:49:28.041304,+0.13,+0.05,-1.11,51.5378566,-0.013361
2026-06-01T10:49:28.130729,-0.07,-0.05,-1.08,51.5378566,-0.013361
2026-06-01T10:49:28.189896,+0.26,+0.02,-1.06,51.5378566,-0.013361
2026-06-01T10:49:28.250260,+0.14,-0.10,-0.99,51.5378566,-0.013361
2026-06-01T10:49:28.309157,-0.05,-0.07,-1.00,51.5378566,-0.013361
2026-06-01T10:49:28.369271,+0.16,+0.07,-0.91,51.5378756,-0.0133305
2026-06-01T10:49:28.460487,+0.21,-0.00,-0.91,51.5378756,-0.0133305
2026-06-01T10:49:28.518580,+0.12,+0.16,-1.08,51.5378756,-0.0133305
2026-06-01T10:49:28.589061,-0.00,-0.03,-1.07,51.5378756,-0.0133305
2026-06-01T10:49:28.638600,+0.04,-0.15,-0.99,51.5378756,-0.0133305
2026-06-01T10:49:28.700786,+0.12,-0.03,-0.90,51.5378756,-0.0133305
2026-06-01T10:49:28.791796,+0.11,+0.04,-0.97,51.5378756,-0.0133305
2026-06-01T10:49:28.850597,-0.10,-0.04,-1.04,51.5378756,-0.0133305
2026-06-01T10:49:28.910182,+0.18,+0.00,-1.21,51.5378756,-0.0133305
2026-06-01T10:49:28.969840,+0.22,+0.13,-0.90,51.5378756,-0.0133305
2026-06-01T10:49:29.060720,-0.11,-0.20,-1.11,51.5378756,-0.0133305
2026-06-01T10:49:29.120385,+0.19,-0.06,-0.87,51.5378756,-0.0133305
2026-06-01T10:49:29.180916,+0.14,-0.08,-1.02,51.5378756,-0.0133305
2026-06-01T10:49:29.240463,-0.00,-0.06,-1.06,51.5378756,-0.0133305
2026-06-01T10:49:29.300456,+0.02,-0.18,-1.12,51.5378756,-0.0133305
2026-06-01T10:49:29.391564,+0.13,+0.13,-0.88,51.537884,-0.0132901
2026-06-01T10:49:29.451080,+0.04,-0.18,-0.99,51.537884,-0.0132901
2026-06-01T10:49:29.510110,+0.28,+0.08,-1.06,51.537884,-0.0132901
2026-06-01T10:49:29.601091,+0.14,-0.19,-0.93,51.537884,-0.0132901
2026-06-01T10:49:29.628633,+0.04,-0.09,-1.01,51.537884,-0.0132901
2026-06-01T10:49:29.721185,+0.34,-0.03,-0.97,51.537884,-0.0132901
2026-06-01T10:49:29.781403,+0.00,-0.16,-1.07,51.537884,-0.0132901
2026-06-01T10:49:29.841022,+0.25,+0.04,-0.88,51.537884,-0.0132901
2026-06-01T10:49:29.899408,-0.26,+0.01,-1.15,51.537884,-0.0132901
2026-06-01T10:49:29.960481,+0.17,+0.34,-1.07,51.537884,-0.0132901
2026-06-01T10:49:30.050093,-0.01,+0.16,-1.04,51.537884,-0.0132901
2026-06-01T10:49:30.110895,-0.10,-0.09,-0.85,51.537884,-0.0132901
2026-06-01T10:49:30.171877,+0.23,-0.47,-0.94,51.537884,-0.0132901
2026-06-01T10:49:30.229946,+0.00,+0.11,-0.96,51.537884,-0.0132901
2026-06-01T10:49:30.293502,+0.04,+0.03,-1.04,51.537884,-0.0132901
2026-06-01T10:49:30.380278,+0.10,+0.01,-1.00,51.5378816,-0.0132471
2026-06-01T10:49:30.439947,+0.08,+0.07,-1.08,51.5378816,-0.0132471
2026-06-01T10:49:30.500115,+0.03,-0.09,-0.99,51.5378816,-0.0132471
2026-06-01T10:49:30.561597,+0.02,-0.10,-0.89,51.5378816,-0.0132471
2026-06-01T10:49:30.620257,+0.30,+0.19,-0.97,51.5378816,-0.0132471
2026-06-01T10:49:30.710648,+0.11,+0.06,-0.99,51.5378816,-0.0132471
2026-06-01T10:49:30.770596,-0.05,+0.05,-1.15,51.5378816,-0.0132471
2026-06-01T10:49:30.829330,+0.46,+0.01,-0.96,51.5378816,-0.0132471
2026-06-01T10:49:30.892667,-0.10,+0.06,-1.06,51.5378816,-0.0132471
2026-06-01T10:49:30.949978,+0.04,+0.01,-0.79,51.5378816,-0.0132471
2026-06-01T10:49:31.039897,-0.09,-0.17,-1.15,51.5378816,-0.0132471
2026-06-01T10:49:31.100386,+0.24,+0.15,-1.00,51.5378816,-0.0132471
2026-06-01T10:49:31.161130,-0.04,-0.27,-1.14,51.5378816,-0.0132471
2026-06-01T10:49:31.219627,+0.20,-0.10,-0.88,51.5378816,-0.0132471
2026-06-01T10:49:31.316135,+0.13,-0.02,-0.90,51.5378816,-0.0132471
2026-06-01T10:49:31.370650,+0.00,-0.13,-1.00,51.5378734,-0.0132047
2026-06-01T10:49:31.430258,+0.24,-0.03,-1.12,51.5378734,-0.0132047
2026-06-01T10:49:31.489012,+0.07,-0.01,-0.95,51.5378734,-0.0132047
2026-06-01T10:49:31.549952,+0.12,+0.06,-0.93,51.5378734,-0.0132047
2026-06-01T10:49:31.640901,-0.00,-0.08,-1.16,51.5378734,-0.0132047
2026-06-01T10:49:31.699536,+0.08,-0.06,-0.85,51.5378734,-0.0132047
2026-06-01T10:49:31.760755,-0.09,-0.09,-1.14,51.5378734,-0.0132047
2026-06-01T10:49:31.820649,+0.12,-0.05,-1.25,51.5378734,-0.0132047
2026-06-01T10:49:31.880871,+0.26,+0.32,-0.84,51.5378734,-0.0132047
2026-06-01T10:49:31.969466,-0.06,-0.11,-0.97,51.5378734,-0.0132047
2026-06-01T10:49:32.029026,+0.12,+0.00,-1.01,51.5378734,-0.0132047
2026-06-01T10:49:32.091426,+0.27,+0.06,-1.04,51.5378734,-0.0132047
2026-06-01T10:49:32.149858,-0.24,-0.31,-1.14,51.5378734,-0.0132047
2026-06-01T10:49:32.209413,+0.07,-0.01,-0.99,51.5378734,-0.0132047
2026-06-01T10:49:32.301070,+0.28,+0.30,-0.78,51.5378734,-0.0132047
2026-06-01T10:49:32.360254,-0.21,-0.10,-0.89,51.5378552,-0.0131672
2026-06-01T10:49:32.420953,+0.03,-0.06,-1.08,51.5378552,-0.0131672
2026-06-01T10:49:32.481133,+0.28,+0.07,-0.94,51.5378552,-0.0131672
2026-06-01T10:49:32.540997,+0.08,-0.21,-1.03,51.5378552,-0.0131672
2026-06-01T10:49:32.630911,+0.10,-0.09,-1.09,51.5378552,-0.0131672
2026-06-01T10:49:32.690249,+0.14,+0.14,-0.92,51.5378552,-0.0131672
2026-06-01T10:49:32.750431,-0.11,-0.19,-1.05,51.5378552,-0.0131672
2026-06-01T10:49:32.811,+0.14,+0.20,-0.93,51.5378552,-0.0131672
2026-06-01T10:49:32.870516,+0.07,-0.12,-0.97,51.5378552,-0.0131672
2026-06-01T10:49:32.960360,-0.14,-0.04,-1.02,51.5378552,-0.0131672
2026-06-01T10:49:33.021607,+0.20,-0.05,-0.88,51.5378552,-0.0131672
2026-06-01T10:49:33.080310,-0.01,+0.00,-1.13,51.5378552,-0.0131672
2026-06-01T10:49:33.172090,+0.11,+0.01,-1.08,51.5378552,-0.0131672
2026-06-01T10:49:33.230523,-0.04,-0.26,-1.01,51.5378552,-0.0131672
2026-06-01T10:49:33.291351,+0.08,-0.11,-1.15,51.5378552,-0.0131672
2026-06-01T10:49:33.349073,+0.28,-0.03,-0.95,51.5378283,-0.0131403
2026-06-01T10:49:33.411828,-0.00,-0.17,-0.96,51.5378283,-0.0131403
2026-06-01T10:49:33.500994,-0.07,+0.00,-0.85,51.5378283,-0.0131403
2026-06-01T10:49:33.560329,+0.18,+0.02,-1.21,51.5378283,-0.0131403
2026-06-01T10:49:33.620536,+0.03,+0.04,-0.95,51.5378283,-0.0131403
2026-06-01T10:49:33.681112,+0.24,+0.05,-0.77,51.5378283,-0.0131403
2026-06-01T10:49:33.740987,+0.08,+0.01,-1.22,51.5378283,-0.0131403
2026-06-01T10:49:33.832254,+0.17,+0.07,-1.01,51.5378283,-0.0131403
2026-06-01T10:49:33.890819,-0.15,-0.23,-0.89,51.5378283,-0.0131403
2026-06-01T10:49:33.949938,+0.14,+0.04,-1.25,51.5378283,-0.0131403
2026-06-01T10:49:34.010838,+0.25,+0.22,-0.99,51.5378283,-0.0131403
2026-06-01T10:49:34.071126,-0.02,-0.02,-1.10,51.5378283,-0.0131403
2026-06-01T10:49:34.159282,+0.14,+0.10,-0.66,51.5378283,-0.0131403
2026-06-01T10:49:34.220244,+0.21,+0.14,-0.91,51.5378283,-0.0131403
2026-06-01T10:49:34.280259,-0.02,-0.16,-1.03,51.5378283,-0.0131403
2026-06-01T10:49:34.339348,+0.25,+0.01,-0.95,51.5377964,-0.0131345
2026-06-01T10:49:34.400999,-0.54,-0.28,-1.11,51.5377964,-0.0131345
2026-06-01T10:49:34.489837,+0.19,+0.14,-0.89,51.5377964,-0.0131345
2026-06-01T10:49:34.550469,+0.19,-0.00,-1.33,51.5377964,-0.0131345
2026-06-01T10:49:34.611265,-0.02,-0.16,-1.22,51.5377964,-0.0131345
2026-06-01T10:49:34.671490,+0.27,+0.21,-0.97,51.5377964,-0.0131345
2026-06-01T10:49:34.730552,+0.17,-0.10,-1.12,51.5377964,-0.0131345
2026-06-01T10:49:34.790798,+0.16,+0.09,-0.99,51.5377964,-0.0131345
2026-06-01T10:49:34.880500,+0.14,+0.02,-1.02,51.5377964,-0.0131345
2026-06-01T10:49:34.940672,-0.07,-0.20,-0.91,51.5377964,-0.0131345
2026-06-01T10:49:35.001165,+0.14,+0.18,-1.04,51.5377964,-0.0131345
2026-06-01T10:49:35.061568,-0.10,+0.02,-0.80,51.5377964,-0.0131345
2026-06-01T10:49:35.150549,+0.39,+0.31,-0.97,51.5377964,-0.0131345
2026-06-01T10:49:35.210587,-0.26,-0.19,-1.17,51.5377964,-0.0131345
2026-06-01T10:49:35.270294,+0.11,-0.14,-0.94,51.5377964,-0.0131345
2026-06-01T10:49:35.330806,+0.18,+0.04,-1.00,51.5377964,-0.0131345
2026-06-01T10:49:35.421811,+0.22,+0.01,-0.86,51.5377636,-0.0131408
2026-06-01T10:49:35.481264,-0.05,-0.14,-1.18,51.5377636,-0.0131408
2026-06-01T10:49:35.540832,+0.10,+0.08,-0.90,51.5377636,-0.0131408
2026-06-01T10:49:35.600920,+0.26,+0.03,-1.09,51.5377636,-0.0131408
2026-06-01T10:49:35.660786,-0.00,-0.05,-0.84,51.5377636,-0.0131408
2026-06-01T10:49:35.750901,-0.15,-0.04,-1.04,51.5377636,-0.0131408
2026-06-01T10:49:35.810743,+0.41,-0.05,-1.03,51.5377636,-0.0131408
2026-06-01T10:49:35.870444,+0.04,+0.04,-0.86,51.5377636,-0.0131408
2026-06-01T10:49:35.929397,+0.08,+0.15,-1.08,51.5377636,-0.0131408
2026-06-01T10:49:35.989441,+0.01,+0.06,-1.07,51.5377636,-0.0131408
2026-06-01T10:49:36.080182,+0.10,+0.05,-1.03,51.5377636,-0.0131408
2026-06-01T10:49:36.140742,-0.05,+0.01,-1.07,51.5377636,-0.0131408
2026-06-01T10:49:36.230380,+0.30,+0.13,-0.94,51.5377636,-0.0131408
2026-06-01T10:49:36.258696,+0.26,+0.12,-0.90,51.5377636,-0.0131408
2026-06-01T10:49:36.320683,-0.11,-0.13,-1.04,51.5377636,-0.0131408
2026-06-01T10:49:36.411337,-0.20,-0.16,-1.30,51.5377302,-0.0131502
2026-06-01T10:49:36.469621,+0.35,+0.09,-0.83,51.5377302,-0.0131502
2026-06-01T10:49:36.529913,+0.06,-0.02,-1.02,51.5377302,-0.0131502
2026-06-01T10:49:36.589259,-0.28,-0.10,-0.98,51.5377302,-0.0131502
2026-06-01T10:49:36.649547,+0.35,+0.16,-1.07,51.5377302,-0.0131502
2026-06-01T10:49:36.740052,+0.16,-0.01,-0.87,51.5377302,-0.0131502
2026-06-01T10:49:36.800452,-0.43,-0.20,-1.10,51.5377302,-0.0131502
2026-06-01T10:49:36.860908,+0.50,+0.20,-0.80,51.5377302,-0.0131502
2026-06-01T10:49:36.920589,-0.13,-0.01,-1.15,51.5377302,-0.0131502
2026-06-01T10:49:36.982200,+0.15,+0.08,-1.03,51.5377302,-0.0131502
2026-06-01T10:49:37.068865,-0.10,-0.04,-0.89,51.5377302,-0.0131502
2026-06-01T10:49:37.131224,+0.03,-0.08,-1.03,51.5377302,-0.0131502
2026-06-01T10:49:37.190161,+0.13,+0.14,-1.01,51.5377302,-0.0131502
2026-06-01T10:49:37.249985,+0.11,+0.00,-1.06,51.5377302,-0.0131502
2026-06-01T10:49:37.338648,+0.16,+0.04,-1.11,51.5376969,-0.0131641
2026-06-01T10:49:37.400824,-0.07,+0.08,-1.14,51.5376969,-0.0131641
2026-06-01T10:49:37.460574,+0.25,-0.08,-0.78,51.5376969,-0.0131641
2026-06-01T10:49:37.520576,-0.23,-0.22,-1.11,51.5376969,-0.0131641
2026-06-01T10:49:37.581370,+0.10,+0.01,-0.99,51.5376969,-0.0131641
2026-06-01T10:49:37.672886,+0.22,-0.01,-1.09,51.5376969,-0.0131641
2026-06-01T10:49:37.761020,+0.14,+0.03,-0.93,51.5376969,-0.0131641
2026-06-01T10:49:37.790874,+0.02,-0.06,-0.74,51.5376969,-0.0131641
2026-06-01T10:49:37.849963,+0.07,+0.08,-1.27,51.5376969,-0.0131641
2026-06-01T10:49:37.939909,+0.32,+0.35,-0.93,51.5376969,-0.0131641
2026-06-01T10:49:38.000868,+0.03,-0.19,-1.29,51.5376969,-0.0131641
2026-06-01T10:49:38.059833,-0.09,+0.17,-0.96,51.5376969,-0.0131641
2026-06-01T10:49:38.120244,+0.11,-0.26,-0.96,51.5376969,-0.0131641
2026-06-01T10:49:38.179873,+0.07,-0.10,-0.99,51.5376969,-0.0131641
2026-06-01T10:49:38.270491,-0.03,+0.04,-1.11,51.5376969,-0.0131641
2026-06-01T10:49:38.329247,+0.38,+0.23,-0.94,51.5376639,-0.0131823
2026-06-01T10:49:38.392081,-0.21,-0.02,-1.11,51.5376639,-0.0131823
2026-06-01T10:49:38.450710,+0.40,+0.17,-0.78,51.5376639,-0.0131823
2026-06-01T10:49:38.510581,-0.02,+0.04,-1.09,51.5376639,-0.0131823
2026-06-01T10:49:38.600237,+0.15,+0.17,-1.05,51.5376639,-0.0131823
2026-06-01T10:49:38.660461,-0.26,-0.22,-0.97,51.5376639,-0.0131823
2026-06-01T10:49:38.720066,+0.24,+0.11,-1.07,51.5376639,-0.0131823
2026-06-01T10:49:38.781656,-0.04,-0.06,-0.85,51.5376639,-0.0131823
2026-06-01T10:49:38.840387,+0.13,-0.07,-1.01,51.5376639,-0.0131823
2026-06-01T10:49:38.930447,+0.32,+0.15,-0.86,51.5376639,-0.0131823
2026-06-01T10:49:38.988924,-0.40,-0.39,-1.17,51.5376639,-0.0131823
2026-06-01T10:49:39.049556,+0.21,+0.31,-1.05,51.5376639,-0.0131823
2026-06-01T10:49:39.110963,-0.03,+0.05,-0.94,51.5376639,-0.0131823
2026-06-01T10:49:39.201550,+0.04,-0.13,-0.88,51.5376639,-0.0131823
2026-06-01T10:49:39.260822,-0.14,-0.06,-0.89,51.5376639,-0.0131823
2026-06-01T10:49:39.319031,+0.09,+0.05,-0.95,51.5376639,-0.0131823
2026-06-01T10:49:39.380346,+0.14,+0.16,-1.04,51.537631,-0.0131997
2026-06-01T10:49:39.439750,-0.03,+0.11,-0.96,51.537631,-0.0131997
2026-06-01T10:49:39.530614,+0.23,+0.10,-1.08,51.537631,-0.0131997
2026-06-01T10:49:39.590800,-0.03,-0.22,-0.89,51.537631,-0.0131997
2026-06-01T10:49:39.649873,+0.32,+0.17,-0.89,51.537631,-0.0131997
2026-06-01T10:49:39.710453,-0.27,-0.18,-1.07,51.537631,-0.0131997
2026-06-01T10:49:39.771221,+0.32,+0.09,-0.84,51.537631,-0.0131997
2026-06-01T10:49:39.861181,-0.04,-0.01,-1.03,51.537631,-0.0131997
2026-06-01T10:49:39.920339,+0.06,+0.03,-1.12,51.537631,-0.0131997
2026-06-01T10:49:40.039582,+0.30,+0.06,-0.87,51.537631,-0.0131997
2026-06-01T10:49:40.040866,-0.07,-0.21,-1.06,51.537631,-0.0131997
2026-06-01T10:49:40.130598,+0.25,+0.15,-0.92,51.537631,-0.0131997
2026-06-01T10:49:40.191266,-0.21,-0.08,-1.14,51.537631,-0.0131997
2026-06-01T10:49:40.251028,+0.24,+0.11,-0.89,51.537631,-0.0131997
2026-06-01T10:49:40.339369,+0.09,+0.04,-1.01,51.5375977,-0.013212
2026-06-01T10:49:40.369042,-0.23,-0.14,-1.09,51.5375977,-0.013212
2026-06-01T10:49:40.430521,+0.03,+0.12,-1.03,51.5375977,-0.013212
2026-06-01T10:49:40.550048,+0.17,+0.19,-1.01,51.5375977,-0.013212
2026-06-01T10:49:40.582333,-0.32,-0.11,-1.08,51.5375977,-0.013212
2026-06-01T10:49:40.641502,+0.17,+0.09,-1.04,51.5375977,-0.013212
2026-06-01T10:49:40.700746,+0.08,-0.16,-0.94,51.5375977,-0.013212
2026-06-01T10:49:40.760432,+0.04,+0.07,-0.96,51.5375977,-0.013212
2026-06-01T10:49:40.850857,+0.08,+0.00,-0.89,51.5375977,-0.013212
2026-06-01T10:49:40.909536,-0.05,-0.19,-1.04,51.5375977,-0.013212
2026-06-01T10:49:40.970079,+0.15,+0.04,-1.16,51.5375977,-0.013212
2026-06-01T10:49:41.060355,-0.04,-0.23,-0.84,51.5375977,-0.013212
2026-06-01T10:49:41.089766,+0.17,+0.15,-0.98,51.5375977,-0.013212
2026-06-01T10:49:41.181042,-0.12,-0.05,-1.10,51.5375977,-0.013212
2026-06-01T10:49:41.269769,+0.04,+0.25,-0.88,51.5375977,-0.013212
2026-06-01T10:49:41.299938,-0.12,-0.17,-0.95,51.5375977,-0.013212
2026-06-01T10:49:41.390663,+0.11,+0.11,-1.12,51.5375651,-0.0132201
2026-06-01T10:49:41.451114,+0.12,+0.36,-1.08,51.5375651,-0.0132201
2026-06-01T10:49:41.510938,-0.05,+0.07,-0.95,51.5375651,-0.0132201
2026-06-01T10:49:41.570868,+0.11,-0.01,-1.10,51.5375651,-0.0132201
2026-06-01T10:49:41.629629,+0.08,-0.18,-0.92,51.5375651,-0.0132201
2026-06-01T10:49:41.720790,+0.21,-0.13,-1.07,51.5375651,-0.0132201
2026-06-01T10:49:41.780149,-0.01,-0.14,-0.95,51.5375651,-0.0132201
2026-06-01T10:49:41.840191,-0.09,-0.12,-1.18,51.5375651,-0.0132201
2026-06-01T10:49:41.899591,+0.32,+0.14,-0.95,51.5375651,-0.0132201
2026-06-01T10:49:41.960971,-0.12,-0.06,-0.98,51.5375651,-0.0132201
2026-06-01T10:49:42.051195,+0.24,+0.06,-1.16,51.5375651,-0.0132201
2026-06-01T10:49:42.110215,+0.03,+0.03,-1.12,51.5375651,-0.0132201
2026-06-01T10:49:42.170655,+0.15,+0.22,-1.22,51.5375651,-0.0132201
2026-06-01T10:49:42.230390,-0.10,-0.03,-0.93,51.5375651,-0.0132201
2026-06-01T10:49:42.290313,+0.03,+0.19,-0.81,51.5375651,-0.0132201
2026-06-01T10:49:42.381133,-0.08,-0.16,-1.05,51.537533,-0.0132234
2026-06-01T10:49:42.440607,-0.06,+0.13,-1.00,51.537533,-0.0132234
2026-06-01T10:49:42.499102,-0.12,-0.01,-0.97,51.537533,-0.0132234
2026-06-01T10:49:42.560143,-0.12,-0.21,-1.13,51.537533,-0.0132234
2026-06-01T10:49:42.619482,+0.50,+0.14,-1.00,51.537533,-0.0132234
2026-06-01T10:49:42.709896,+0.08,-0.03,-1.02,51.537533,-0.0132234
2026-06-01T10:49:42.773502,+0.27,+0.01,-1.00,51.537533,-0.0132234
2026-06-01T10:49:42.830349,-0.05,-0.08,-1.04,51.537533,-0.0132234
2026-06-01T10:49:42.920451,-0.22,-0.11,-1.24,51.537533,-0.0132234
2026-06-01T10:49:42.949945,+0.41,+0.18,-0.66,51.537533,-0.0132234
2026-06-01T10:49:43.038509,-0.04,-0.44,-1.05,51.537533,-0.0132234
2026-06-01T10:49:43.160432,+0.45,+0.12,-0.95,51.537533,-0.0132234
2026-06-01T10:49:43.189335,+0.02,+0.03,-0.98,51.537533,-0.0132234
2026-06-01T10:49:43.219099,+0.03,+0.01,-1.10,51.537533,-0.0132234
2026-06-01T10:49:43.281919,-0.08,+0.36,-0.89,51.537533,-0.0132234
2026-06-01T10:49:43.431896,-0.08,-0.03,-1.10,51.5374999,-0.0132291
2026-06-01T10:49:43.432901,-0.36,-0.14,-0.84,51.5374999,-0.0132291
2026-06-01T10:49:43.490123,-0.10,-0.14,-1.13,51.5374999,-0.0132291
2026-06-01T10:49:43.549856,+0.18,-0.05,-0.93,51.5374999,-0.0132291
2026-06-01T10:49:43.640359,+0.32,+0.01,-0.88,51.5374999,-0.0132291
2026-06-01T10:49:43.699843,-0.01,+0.12,-1.11,51.5374999,-0.0132291
2026-06-01T10:49:43.760814,+0.15,-0.05,-1.19,51.5374999,-0.0132291
2026-06-01T10:49:43.820731,+0.06,+0.13,-0.83,51.5374999,-0.0132291
2026-06-01T10:49:43.880333,-0.22,-0.20,-0.93,51.5374999,-0.0132291
2026-06-01T10:49:43.970455,-0.09,+0.04,-1.10,51.5374999,-0.0132291
2026-06-01T10:49:44.030481,-0.10,-0.22,-0.78,51.5374999,-0.0132291
2026-06-01T10:49:44.091195,+0.08,+0.15,-1.22,51.5374999,-0.0132291
2026-06-01T10:49:44.150210,-0.14,+0.03,-0.89,51.5374999,-0.0132291
2026-06-01T10:49:44.211521,+0.50,+0.06,-1.05,51.5374999,-0.0132291
2026-06-01T10:49:44.299577,+0.12,-0.05,-0.78,51.5374999,-0.0132291
2026-06-01T10:49:44.360209,-0.24,-0.25,-1.35,51.5374674,-0.0132342
2026-06-01T10:49:44.420101,+0.24,+0.23,-0.80,51.5374674,-0.0132342
2026-06-01T10:49:44.481294,+0.06,-0.08,-0.86,51.5374674,-0.0132342
2026-06-01T10:49:44.540242,+0.11,-0.10,-1.03,51.5374674,-0.0132342
2026-06-01T10:49:44.632374,-0.08,-0.02,-1.07,51.5374674,-0.0132342
2026-06-01T10:49:44.690706,+0.31,+0.35,-1.12,51.5374674,-0.0132342
2026-06-01T10:49:44.749910,+0.04,-0.05,-0.93,51.5374674,-0.0132342
2026-06-01T10:49:44.810368,+0.15,-0.08,-0.92,51.5374674,-0.0132342
2026-06-01T10:49:44.869657,+0.07,+0.01,-0.78,51.5374674,-0.0132342
2026-06-01T10:49:44.961538,-0.09,-0.17,-1.00,51.5374674,-0.0132342
2026-06-01T10:49:45.019967,+0.09,+0.11,-1.03,51.5374674,-0.0132342
2026-06-01T10:49:45.080415,+0.12,-0.24,-0.61,51.5374674,-0.0132342
2026-06-01T10:49:45.141251,-0.05,+0.03,-1.01,51.5374674,-0.0132342
2026-06-01T10:49:45.200447,+0.19,+0.18,-0.99,51.5374674,-0.0132342
2026-06-01T10:49:45.290625,-0.01,+0.08,-1.03,51.5374674,-0.0132342
2026-06-01T10:49:45.348926,-0.09,-0.12,-0.80,51.5374357,-0.0132399
2026-06-01T10:49:45.410559,+0.06,+0.19,-0.91,51.5374357,-0.0132399
2026-06-01T10:49:45.470712,-0.11,-0.17,-1.11,51.5374357,-0.0132399
2026-06-01T10:49:45.561731,+0.27,+0.10,-0.85,51.5374357,-0.0132399
2026-06-01T10:49:45.621017,+0.08,+0.12,-0.98,51.5374357,-0.0132399
2026-06-01T10:49:45.681343,-0.13,-0.06,-0.97,51.5374357,-0.0132399
2026-06-01T10:49:45.741369,+0.27,+0.04,-1.12,51.5374357,-0.0132399
2026-06-01T10:49:45.801222,+0.08,+0.04,-1.03,51.5374357,-0.0132399
2026-06-01T10:49:45.891281,+0.01,-0.06,-0.85,51.5374357,-0.0132399
2026-06-01T10:49:45.950803,-0.05,-0.05,-1.05,51.5374357,-0.0132399
2026-06-01T10:49:46.011120,+0.08,+0.02,-0.90,51.5374357,-0.0132399
2026-06-01T10:49:46.070562,-0.17,-0.19,-1.11,51.5374357,-0.0132399
2026-06-01T10:49:46.131333,+0.33,+0.17,-1.07,51.5374357,-0.0132399
2026-06-01T10:49:46.220283,-0.00,-0.09,-1.02,51.5374357,-0.0132399
2026-06-01T10:49:46.280081,+0.28,+0.13,-0.94,51.5374357,-0.0132399
2026-06-01T10:49:46.369753,-0.14,-0.05,-1.04,51.5374027,-0.013243
2026-06-01T10:49:46.398907,+0.14,+0.08,-1.07,51.5374027,-0.013243
2026-06-01T10:49:46.459183,+0.10,+0.06,-0.91,51.5374027,-0.013243
2026-06-01T10:49:46.549641,-0.22,-0.29,-1.15,51.5374027,-0.013243
2026-06-01T10:49:46.611455,+0.62,+0.09,-0.64,51.5374027,-0.013243
2026-06-01T10:49:46.671960,-0.31,-0.23,-0.78,51.5374027,-0.013243
2026-06-01T10:49:46.730017,+0.08,-0.20,-0.93,51.5374027,-0.013243
2026-06-01T10:49:46.790197,+0.40,+0.29,-0.99,51.5374027,-0.013243
2026-06-01T10:49:46.880819,-0.04,+0.04,-0.90,51.5374027,-0.013243
2026-06-01T10:49:46.939937,-0.37,-0.14,-1.19,51.5374027,-0.013243
2026-06-01T10:49:47.000130,+0.30,+0.18,-0.99,51.5374027,-0.013243
2026-06-01T10:49:47.060417,-0.07,+0.08,-1.04,51.5374027,-0.013243
2026-06-01T10:49:47.119792,+0.15,+0.06,-0.96,51.5374027,-0.013243
2026-06-01T10:49:47.210781,+0.04,+0.14,-0.65,51.5374027,-0.013243
2026-06-01T10:49:47.271201,-0.24,-0.17,-1.26,51.5374027,-0.013243
2026-06-01T10:49:47.331138,+0.39,+0.05,-1.08,51.5374027,-0.013243
2026-06-01T10:49:47.390869,-0.29,+0.31,-0.80,51.5373683,-0.0132377
2026-06-01T10:49:47.480759,+0.16,+0.18,-0.94,51.5373683,-0.0132377
2026-06-01T10:49:47.540434,+0.14,+0.03,-0.98,51.5373683,-0.0132377
2026-06-01T10:49:47.600934,-0.22,-0.16,-1.14,51.5373683,-0.0132377
2026-06-01T10:49:47.660795,+0.14,+0.07,-0.99,51.5373683,-0.0132377
2026-06-01T10:49:47.750848,+0.12,-0.06,-0.87,51.5373683,-0.0132377
2026-06-01T10:49:47.810942,+0.23,-0.09,-0.86,51.5373683,-0.0132377
2026-06-01T10:49:47.870801,-0.05,-0.18,-0.94,51.5373683,-0.0132377
2026-06-01T10:49:47.931771,-0.00,-0.13,-1.06,51.5373683,-0.0132377
2026-06-01T10:49:47.990145,+0.20,+0.15,-0.89,51.5373683,-0.0132377
2026-06-01T10:49:48.080291,-0.13,-0.05,-0.98,51.5373683,-0.0132377
2026-06-01T10:49:48.139929,+0.32,-0.02,-0.93,51.5373683,-0.0132377
2026-06-01T10:49:48.200877,-0.10,-0.07,-1.05,51.5373683,-0.0132377
2026-06-01T10:49:48.261196,+0.26,+0.13,-1.07,51.5373683,-0.0132377
2026-06-01T10:49:48.319400,-0.02,+0.11,-0.91,51.5373683,-0.0132377
2026-06-01T10:49:48.411256,-0.11,-0.22,-1.11,51.5373344,-0.0132333
2026-06-01T10:49:48.470154,+0.07,-0.07,-0.99,51.5373344,-0.0132333
2026-06-01T10:49:48.529293,+0.23,-0.01,-0.80,51.5373344,-0.0132333
2026-06-01T10:49:48.590818,+0.08,+0.16,-1.09,51.5373344,-0.0132333
2026-06-01T10:49:48.650425,+0.23,+0.10,-0.83,51.5373344,-0.0132333
2026-06-01T10:49:48.770660,-0.38,-0.29,-1.11,51.5373344,-0.0132333
2026-06-01T10:49:48.799990,+0.31,+0.08,-1.07,51.5373344,-0.0132333
2026-06-01T10:49:48.861092,+0.00,+0.16,-0.94,51.5373344,-0.0132333
2026-06-01T10:49:48.920203,+0.13,+0.12,-1.11,51.5373344,-0.0132333
2026-06-01T10:49:48.980119,-0.07,-0.01,-1.05,51.5373344,-0.0132333
2026-06-01T10:49:49.069713,+0.15,-0.07,-1.08,51.5373344,-0.0132333
2026-06-01T10:49:49.131094,+0.03,+0.02,-0.95,51.5373344,-0.0132333
2026-06-01T10:49:49.220951,-0.26,-0.24,-1.14,51.5373344,-0.0132333
2026-06-01T10:49:49.249661,+0.51,+0.22,-0.98,51.5373344,-0.0132333
2026-06-01T10:49:49.311987,+0.00,+0.10,-1.21,51.5373344,-0.0132333
2026-06-01T10:49:49.430780,-0.20,+0.52,-0.91,51.5373002,-0.0132228
2026-06-01T10:49:49.459127,-0.32,-0.19,-0.92,51.5373002,-0.0132228
2026-06-01T10:49:49.519729,+0.41,+0.00,-0.94,51.5373002,-0.0132228
2026-06-01T10:49:49.580286,+0.06,-0.26,-0.99,51.5373002,-0.0132228
2026-06-01T10:49:49.670826,+0.61,-0.17,-0.87,51.5373002,-0.0132228
2026-06-01T10:49:49.730656,-0.25,-0.28,-1.04,51.5373002,-0.0132228
2026-06-01T10:49:49.790101,+0.11,+0.05,-0.97,51.5373002,-0.0132228
2026-06-01T10:49:49.851048,-0.12,+0.20,-1.09,51.5373002,-0.0132228
2026-06-01T10:49:49.910695,+0.02,-0.30,-1.12,51.5373002,-0.0132228
2026-06-01T10:49:50.002236,+0.03,+0.29,-0.88,51.5373002,-0.0132228
2026-06-01T10:49:50.061570,-0.20,+0.08,-1.23,51.5373002,-0.0132228
2026-06-01T10:49:50.122447,+0.16,+0.24,-0.91,51.5373002,-0.0132228
2026-06-01T10:49:50.180772,-0.10,-0.10,-1.12,51.5373002,-0.0132228
2026-06-01T10:49:50.241597,+0.14,+0.19,-1.01,51.5373002,-0.0132228
2026-06-01T10:49:50.359623,-0.16,+0.10,-1.00,51.5372684,-0.0132064
2026-06-01T10:49:50.390186,+0.02,+0.28,-1.00,51.5372684,-0.0132064
2026-06-01T10:49:50.450081,+0.10,-0.11,-0.86,51.5372684,-0.0132064
2026-06-01T10:49:50.509664,-0.06,-0.50,-1.04,51.5372684,-0.0132064
2026-06-01T10:49:50.570561,+0.27,-0.07,-1.01,51.5372684,-0.0132064
2026-06-01T10:49:50.661679,-0.02,+0.25,-1.07,51.5372684,-0.0132064
2026-06-01T10:49:50.720127,+0.49,-0.09,-1.07,51.5372684,-0.0132064
2026-06-01T10:49:50.782438,-0.19,-0.33,-0.95,51.5372684,-0.0132064
2026-06-01T10:49:50.872308,+0.02,-0.03,-1.51,51.5372684,-0.0132064
2026-06-01T10:49:50.900504,+0.20,+0.17,-0.54,51.5372684,-0.0132064
2026-06-01T10:49:50.991168,-0.21,-0.19,-1.10,51.5372684,-0.0132064
2026-06-01T10:49:51.081639,+0.25,+0.23,-0.62,51.5372684,-0.0132064
2026-06-01T10:49:51.108865,-0.02,-0.17,-0.64,51.5372684,-0.0132064
2026-06-01T10:49:51.170927,-0.33,-0.60,-1.74,51.5372684,-0.0132064
2026-06-01T10:49:51.229668,+0.12,+0.03,-0.81,51.5372684,-0.0132064
2026-06-01T10:49:51.318463,-0.17,-0.29,-1.78,51.5372684,-0.0132064
2026-06-01T10:49:51.380476,+0.12,+0.36,-0.33,51.5372376,-0.0131921
2026-06-01T10:49:51.442087,+0.68,+0.40,-1.12,51.5372376,-0.0131921
2026-06-01T10:49:51.500468,+0.27,+0.09,-1.00,51.5372376,-0.0131921
2026-06-01T10:49:51.591975,-0.39,-0.30,-1.29,51.5372376,-0.0131921
2026-06-01T10:49:51.650462,+0.47,+0.34,-1.15,51.5372376,-0.0131921
2026-06-01T10:49:51.709377,+0.40,+0.10,-1.01,51.5372376,-0.0131921
2026-06-01T10:49:51.770967,+0.02,-0.05,-0.65,51.5372376,-0.0131921
2026-06-01T10:49:51.860800,-0.18,-0.25,-1.00,51.5372376,-0.0131921
2026-06-01T10:49:51.919144,+0.26,+0.01,-1.21,51.5372376,-0.0131921
2026-06-01T10:49:51.979492,-0.21,-0.02,-0.97,51.5372376,-0.0131921
2026-06-01T10:49:52.040298,-0.06,-0.17,-1.00,51.5372376,-0.0131921
2026-06-01T10:49:52.100012,+0.51,+0.07,-0.86,51.5372376,-0.0131921
2026-06-01T10:49:52.190222,-0.21,-0.20,-1.15,51.5372376,-0.0131921
2026-06-01T10:49:52.250928,-0.14,-0.01,-1.12,51.5372376,-0.0131921
2026-06-01T10:49:52.314973,+0.27,+0.14,-1.04,51.5372376,-0.0131921
2026-06-01T10:49:52.370248,+0.06,-0.05,-1.01,51.5372057,-0.0131845
2026-06-01T10:49:52.431164,+0.15,-0.07,-1.05,51.5372057,-0.0131845
2026-06-01T10:49:52.520580,+0.31,+0.22,-0.88,51.5372057,-0.0131845
2026-06-01T10:49:52.579977,-0.19,-0.22,-1.01,51.5372057,-0.0131845
2026-06-01T10:49:52.639293,+0.05,-0.07,-1.07,51.5372057,-0.0131845
2026-06-01T10:49:52.700294,+0.13,-0.07,-1.12,51.5372057,-0.0131845
2026-06-01T10:49:52.759882,+0.01,-0.20,-0.91,51.5372057,-0.0131845
2026-06-01T10:49:52.851858,+0.11,+0.35,-1.01,51.5372057,-0.0131845
2026-06-01T10:49:52.909637,-0.04,+0.19,-1.04,51.5372057,-0.0131845
2026-06-01T10:49:52.970652,-0.04,-0.04,-0.98,51.5372057,-0.0131845
2026-06-01T10:49:53.031034,+0.03,+0.15,-1.05,51.5372057,-0.0131845
2026-06-01T10:49:53.119063,+0.21,+0.08,-1.07,51.5372057,-0.0131845
2026-06-01T10:49:53.210713,+0.05,+0.16,-0.90,51.5372057,-0.0131845
2026-06-01T10:49:53.240156,-0.41,-0.24,-1.16,51.5372057,-0.0131845
2026-06-01T10:49:53.299781,+0.14,+0.15,-0.78,51.5372057,-0.0131845
2026-06-01T10:49:53.359455,-0.13,-0.26,-1.02,51.537174,-0.0131792
2026-06-01T10:49:53.418769,+0.25,+0.05,-0.90,51.537174,-0.0131792
2026-06-01T10:49:53.508208,-0.18,-0.13,-1.21,51.537174,-0.0131792
2026-06-01T10:49:53.569798,+0.31,+0.25,-0.80,51.537174,-0.0131792
2026-06-01T10:49:53.631367,-0.10,-0.10,-1.09,51.537174,-0.0131792
2026-06-01T10:49:53.692339,+0.22,+0.07,-0.86,51.537174,-0.0131792
2026-06-01T10:49:53.781319,+0.05,+0.01,-1.19,51.537174,-0.0131792
2026-06-01T10:49:53.841267,+0.01,+0.15,-1.09,51.537174,-0.0131792
2026-06-01T10:49:53.900663,-0.04,-0.06,-0.97,51.537174,-0.0131792
2026-06-01T10:49:53.961259,+0.08,-0.04,-0.98,51.537174,-0.0131792
2026-06-01T10:49:54.020208,+0.07,+0.01,-1.02,51.537174,-0.0131792
2026-06-01T10:49:54.111095,+0.06,+0.26,-1.09,51.537174,-0.0131792
2026-06-01T10:49:54.170009,+0.28,+0.24,-1.07,51.537174,-0.0131792
2026-06-01T10:49:54.229411,-0.11,+0.01,-1.07,51.537174,-0.0131792
2026-06-01T10:49:54.291369,+0.12,+0.09,-1.09,51.537174,-0.0131792
2026-06-01T10:49:54.348151,+0.21,-0.03,-0.87,51.5371425,-0.0131653
2026-06-01T10:49:54.441681,-0.38,-0.12,-1.04,51.5371425,-0.0131653
2026-06-01T10:49:54.500113,+0.15,+0.14,-0.88,51.5371425,-0.0131653
2026-06-01T10:49:54.560250,+0.17,-0.01,-1.02,51.5371425,-0.0131653
2026-06-01T10:49:54.620776,+0.08,+0.09,-1.01,51.5371425,-0.0131653
2026-06-01T10:49:54.681482,+0.15,+0.12,-0.96,51.5371425,-0.0131653
2026-06-01T10:49:54.769655,-0.12,-0.08,-0.94,51.5371425,-0.0131653
2026-06-01T10:49:54.830881,+0.17,+0.08,-1.18,51.5371425,-0.0131653
2026-06-01T10:49:54.891381,-0.01,+0.06,-0.88,51.5371425,-0.0131653
2026-06-01T10:49:54.950595,+0.10,-0.08,-1.03,51.5371425,-0.0131653
2026-06-01T10:49:55.011140,+0.14,-0.09,-1.05,51.5371425,-0.0131653
2026-06-01T10:49:55.100045,+0.06,+0.02,-0.95,51.5371425,-0.0131653
2026-06-01T10:49:55.159589,+0.17,+0.07,-0.96,51.5371425,-0.0131653
2026-06-01T10:49:55.220127,-0.28,-0.13,-1.15,51.5371425,-0.0131653
2026-06-01T10:49:55.280878,+0.26,+0.11,-0.82,51.5371425,-0.0131653
2026-06-01T10:49:55.340608,-0.07,-0.15,-1.00,51.5371425,-0.0131653
2026-06-01T10:49:55.432450,+0.29,-0.18,-0.97,51.5371108,-0.0131477
2026-06-01T10:49:55.489836,+0.03,+0.08,-0.90,51.5371108,-0.0131477
2026-06-01T10:49:55.581470,-0.07,-0.23,-1.08,51.5371108,-0.0131477
2026-06-01T10:49:55.611124,+0.16,+0.08,-0.98,51.5371108,-0.0131477
2026-06-01T10:49:55.700650,-0.15,-0.10,-1.00,51.5371108,-0.0131477
2026-06-01T10:49:55.790403,+0.38,+0.27,-1.02,51.5371108,-0.0131477
2026-06-01T10:49:55.818627,-0.12,+0.16,-0.94,51.5371108,-0.0131477
2026-06-01T10:49:55.882208,+0.02,+0.07,-1.08,51.5371108,-0.0131477
2026-06-01T10:49:55.970476,+0.09,+0.01,-0.90,51.5371108,-0.0131477
2026-06-01T10:49:56.031936,-0.07,-0.13,-0.87,51.5371108,-0.0131477
2026-06-01T10:49:56.090365,+0.14,-0.19,-0.85,51.5371108,-0.0131477
2026-06-01T10:49:56.149614,-0.21,-0.02,-1.10,51.5371108,-0.0131477
2026-06-01T10:49:56.209670,+0.35,+0.29,-0.98,51.5371108,-0.0131477
2026-06-01T10:49:56.299831,-0.10,-0.13,-1.15,51.5371108,-0.0131477
2026-06-01T10:49:56.359942,+0.13,+0.09,-1.01,51.5370775,-0.0131284
2026-06-01T10:49:56.419774,+0.00,-0.08,-1.04,51.5370775,-0.0131284
2026-06-01T10:49:56.541837,+0.31,+0.07,-0.91,51.5370775,-0.0131284
2026-06-01T10:49:56.542679,-0.04,+0.05,-0.94,51.5370775,-0.0131284
2026-06-01T10:49:56.631733,+0.10,+0.11,-0.83,51.5370775,-0.0131284
2026-06-01T10:49:56.691340,-0.29,-0.51,-1.31,51.5370775,-0.0131284
2026-06-01T10:49:56.752034,+0.65,+0.44,-1.11,51.5370775,-0.0131284
2026-06-01T10:49:56.812082,-0.06,-0.18,-1.17,51.5370775,-0.0131284
2026-06-01T10:49:56.870720,-0.02,+0.28,-0.29,51.5370775,-0.0131284
2026-06-01T10:49:56.960804,+0.82,+0.48,-0.97,51.5370775,-0.0131284
2026-06-01T10:49:57.020596,-0.03,-0.14,-1.11,51.5370775,-0.0131284
2026-06-01T10:49:57.080851,-0.23,-0.54,-0.91,51.5370775,-0.0131284
2026-06-01T10:49:57.139168,-0.41,-0.09,-0.53,51.5370775,-0.0131284
2026-06-01T10:49:57.201665,+0.38,-0.01,-0.96,51.5370775,-0.0131284
2026-06-01T10:49:57.319794,-0.10,+0.13,-0.87,51.5370775,-0.0131284
2026-06-01T10:49:57.442130,-0.09,+0.08,-1.24,51.5370447,-0.0131077
2026-06-01T10:49:57.443101,-0.21,-0.13,-1.18,51.5370447,-0.0131077
2026-06-01T10:49:57.531958,+0.49,+0.05,-0.94,51.5370447,-0.0131077
2026-06-01T10:49:57.533007,+0.12,-0.23,-0.80,51.5370447,-0.0131077
2026-06-01T10:49:57.623096,+0.01,+0.02,-0.77,51.5370447,-0.0131077
2026-06-01T10:49:57.741233,+0.37,-0.09,-0.73,51.5370447,-0.0131077
2026-06-01T10:49:57.742084,-0.27,-0.16,-1.42,51.5370447,-0.0131077
2026-06-01T10:49:57.831941,+0.26,+0.23,-0.84,51.5370447,-0.0131077
2026-06-01T10:49:57.921024,+0.20,+0.04,-0.89,51.5370447,-0.0131077
2026-06-01T10:49:57.952534,+0.00,-0.06,-0.94,51.5370447,-0.0131077
2026-06-01T10:49:58.041495,-0.07,+0.01,-1.04,51.5370447,-0.0131077
2026-06-01T10:49:58.069977,-0.08,-0.15,-1.05,51.5370447,-0.0131077
2026-06-01T10:49:58.251211,+0.12,+0.12,-0.85,51.5370447,-0.0131077
2026-06-01T10:49:58.252482,+0.13,+0.12,-0.90,51.5370447,-0.0131077
2026-06-01T10:49:58.309742,-0.19,-0.09,-1.06,51.5370447,-0.0131077
2026-06-01T10:49:58.339168,+0.07,+0.09,-1.13,51.5370128,-0.0130827
2026-06-01T10:49:58.460289,+0.08,-0.07,-0.97,51.5370128,-0.0130827
2026-06-01T10:49:58.582386,+0.15,+0.05,-1.12,51.5370128,-0.0130827
2026-06-01T10:49:58.583464,+0.23,+0.14,-0.84,51.5370128,-0.0130827
2026-06-01T10:49:58.609640,-0.26,-0.13,-0.94,51.5370128,-0.0130827
2026-06-01T10:49:58.671219,+0.19,-0.06,-1.08,51.5370128,-0.0130827
2026-06-01T10:49:58.761317,-0.01,-0.07,-1.07,51.5370128,-0.0130827
2026-06-01T10:49:58.850811,+0.11,+0.17,-1.03,51.5370128,-0.0130827
2026-06-01T10:49:58.881410,+0.09,-0.08,-1.09,51.5370128,-0.0130827
2026-06-01T10:49:58.970757,+0.20,+0.10,-0.93,51.5370128,-0.0130827
2026-06-01T10:49:59.060349,-0.11,-0.01,-1.05,51.5370128,-0.0130827
2026-06-01T10:49:59.061217,+0.05,-0.04,-0.99,51.5370128,-0.0130827
2026-06-01T10:49:59.150153,-0.03,-0.01,-1.07,51.5370128,-0.0130827
2026-06-01T10:49:59.270758,+0.26,+0.08,-0.93,51.5370128,-0.0130827
2026-06-01T10:49:59.272099,-0.15,-0.11,-1.16,51.5370128,-0.0130827
2026-06-01T10:49:59.328090,+0.30,+0.21,-1.08,51.5370128,-0.0130827
2026-06-01T10:49:59.420512,-0.12,-0.11,-0.98,51.5369848,-0.0130509
2026-06-01T10:49:59.479873,+0.08,+0.06,-1.04,51.5369848,-0.0130509
2026-06-01T10:49:59.572016,+0.22,+0.13,-1.03,51.5369848,-0.0130509
2026-06-01T10:49:59.599723,-0.14,-0.11,-1.10,51.5369848,-0.0130509
2026-06-01T10:49:59.660377,+0.19,+0.14,-0.90,51.5369848,-0.0130509
2026-06-01T10:49:59.752639,-0.24,-0.21,-1.08,51.5369848,-0.0130509
2026-06-01T10:49:59.814230,+0.32,+0.03,-0.84,51.5369848,-0.0130509
2026-06-01T10:49:59.870989,+0.02,-0.07,-1.07,51.5369848,-0.0130509
2026-06-01T10:49:59.930911,+0.21,+0.09,-0.91,51.5369848,-0.0130509
2026-06-01T10:50:00.018945,-0.13,-0.13,-0.91,51.5369848,-0.0130509
2026-06-01T10:50:00.081259,+0.21,-0.00,-1.13,51.5369848,-0.0130509
2026-06-01T10:50:00.139791,-0.03,+0.07,-1.06,51.5369848,-0.0130509
2026-06-01T10:50:00.199445,-0.11,-0.15,-0.75,51.5369848,-0.0130509
2026-06-01T10:50:00.260583,-0.13,+0.33,-0.71,51.5369848,-0.0130509
2026-06-01T10:50:00.349413,+0.18,+0.12,-1.37,51.5369563,-0.0130186
2026-06-01T10:50:00.411128,+0.30,+0.13,-0.66,51.5369563,-0.0130186
2026-06-01T10:50:00.470027,-0.08,-0.13,-1.10,51.5369563,-0.0130186
2026-06-01T10:50:00.591286,+0.36,+0.02,-0.89,51.5369563,-0.0130186
2026-06-01T10:50:00.592675,+0.00,-0.03,-0.96,51.5369563,-0.0130186
2026-06-01T10:50:00.680571,+0.39,-0.08,-1.21,51.5369563,-0.0130186
2026-06-01T10:50:00.770848,-0.08,-0.04,-0.84,51.5369563,-0.0130186
2026-06-01T10:50:00.801225,+0.18,+0.06,-0.95,51.5369563,-0.0130186
2026-06-01T10:50:00.861772,-0.05,-0.06,-0.98,51.5369563,-0.0130186
2026-06-01T10:50:00.920281,+0.40,+0.17,-0.93,51.5369563,-0.0130186
2026-06-01T10:50:01.041199,-0.07,-0.07,-1.12,51.5369563,-0.0130186
2026-06-01T10:50:01.071546,+0.12,-0.05,-0.90,51.5369563,-0.0130186
2026-06-01T10:50:01.159731,-0.05,+0.05,-0.97,51.5369563,-0.0130186
2026-06-01T10:50:01.254560,+0.09,-0.00,-1.17,51.5369563,-0.0130186
2026-06-01T10:50:01.255580,+0.20,-0.01,-0.86,51.5369563,-0.0130186
2026-06-01T10:50:01.369950,-0.56,-0.08,-1.22,51.5369252,-0.0129934
2026-06-01T10:50:01.460410,+0.10,+0.13,-0.85,51.5369252,-0.0129934
2026-06-01T10:50:01.464208,+0.05,+0.00,-1.01,51.5369252,-0.0129934
2026-06-01T10:50:01.520127,+0.27,+0.07,-1.01,51.5369252,-0.0129934
2026-06-01T10:50:01.581029,-0.19,-0.22,-1.18,51.5369252,-0.0129934
2026-06-01T10:50:01.670092,+0.41,+0.23,-0.84,51.5369252,-0.0129934
2026-06-01T10:50:01.730856,-0.32,-0.16,-1.00,51.5369252,-0.0129934
2026-06-01T10:50:01.821648,+0.19,+0.21,-0.98,51.5369252,-0.0129934
2026-06-01T10:50:01.850645,+0.11,+0.00,-1.06,51.5369252,-0.0129934
2026-06-01T10:50:01.941829,+0.34,+0.10,-0.90,51.5369252,-0.0129934
2026-06-01T10:50:02.028517,-0.21,-0.25,-0.99,51.5369252,-0.0129934
2026-06-01T10:50:02.059023,+0.19,-0.08,-1.00,51.5369252,-0.0129934
2026-06-01T10:50:02.149869,-0.04,+0.13,-0.93,51.5369252,-0.0129934
2026-06-01T10:50:02.179124,+0.08,+0.11,-1.07,51.5369252,-0.0129934
2026-06-01T10:50:02.270113,-0.18,-0.07,-0.97,51.5369252,-0.0129934
2026-06-01T10:50:02.391759,+0.18,-0.14,-1.17,51.5368957,-0.0129708
2026-06-01T10:50:02.392700,+0.43,-0.13,-0.83,51.5368957,-0.0129708
2026-06-01T10:50:02.448805,-0.14,-0.39,-1.56,51.5368957,-0.0129708
2026-06-01T10:50:02.509325,+0.48,+0.17,-0.80,51.5368957,-0.0129708
2026-06-01T10:50:02.600767,-0.06,-0.12,-1.19,51.5368957,-0.0129708
2026-06-01T10:50:02.659457,+0.20,+0.09,-0.94,51.5368957,-0.0129708
2026-06-01T10:50:02.720495,-0.16,-0.09,-1.05,51.5368957,-0.0129708
2026-06-01T10:50:02.840504,+0.21,+0.16,-1.12,51.5368957,-0.0129708
2026-06-01T10:50:02.868402,-0.04,-0.07,-0.92,51.5368957,-0.0129708
2026-06-01T10:50:02.960553,+0.18,+0.05,-1.05,51.5368957,-0.0129708
2026-06-01T10:50:02.989722,-0.02,-0.01,-0.98,51.5368957,-0.0129708
2026-06-01T10:50:03.050499,+0.13,-0.01,-0.96,51.5368957,-0.0129708
2026-06-01T10:50:03.110825,-0.11,+0.20,-1.17,51.5368957,-0.0129708
2026-06-01T10:50:03.170190,+0.27,+0.22,-1.03,51.5368957,-0.0129708
2026-06-01T10:50:03.261133,-0.28,-0.01,-0.94,51.5368957,-0.0129708
2026-06-01T10:50:03.319605,+0.05,-0.07,-1.10,51.5368957,-0.0129708
2026-06-01T10:50:03.379384,+0.15,-0.10,-0.87,51.5368679,-0.0129475
2026-06-01T10:50:03.441547,-0.19,-0.25,-1.20,51.5368679,-0.0129475
2026-06-01T10:50:03.501913,+0.56,+0.19,-0.97,51.5368679,-0.0129475
2026-06-01T10:50:03.589769,-0.25,-0.15,-1.20,51.5368679,-0.0129475
2026-06-01T10:50:03.654994,+0.12,-0.01,-0.89,51.5368679,-0.0129475
2026-06-01T10:50:03.710136,+0.08,-0.45,-0.87,51.5368679,-0.0129475
2026-06-01T10:50:03.772411,-0.01,-0.01,-1.06,51.5368679,-0.0129475
2026-06-01T10:50:03.860759,+0.16,+0.11,-0.87,51.5368679,-0.0129475
2026-06-01T10:50:03.920380,-0.00,-0.14,-1.17,51.5368679,-0.0129475
2026-06-01T10:50:03.981749,+0.24,+0.21,-0.94,51.5368679,-0.0129475
2026-06-01T10:50:04.040668,-0.07,-0.09,-0.99,51.5368679,-0.0129475
2026-06-01T10:50:04.130623,+0.20,+0.17,-1.15,51.5368679,-0.0129475
2026-06-01T10:50:04.188527,+0.21,+0.06,-0.91,51.5368679,-0.0129475
2026-06-01T10:50:04.280011,-0.11,+0.03,-0.96,51.5368679,-0.0129475
2026-06-01T10:50:04.310327,-0.01,-0.16,-0.99,51.5368679,-0.0129475
2026-06-01T10:50:04.369975,+0.03,-0.05,-0.91,51.53684,-0.0129195
2026-06-01T10:50:04.489713,+0.22,+0.03,-1.08,51.53684,-0.0129195
2026-06-01T10:50:04.551333,+0.03,+0.02,-0.90,51.53684,-0.0129195
2026-06-01T10:50:04.610475,-0.20,-0.00,-1.14,51.53684,-0.0129195
2026-06-01T10:50:04.640800,+0.36,+0.28,-0.93,51.53684,-0.0129195
2026-06-01T10:50:04.700596,-0.23,-0.17,-1.46,51.53684,-0.0129195
2026-06-01T10:50:04.791224,+0.24,-0.02,-1.17,51.53684,-0.0129195
2026-06-01T10:50:04.851853,-0.18,-0.12,-0.91,51.53684,-0.0129195
2026-06-01T10:50:04.911442,+0.21,-0.07,-1.02,51.53684,-0.0129195
2026-06-01T10:50:04.971878,-0.12,-0.23,-0.87,51.53684,-0.0129195
2026-06-01T10:50:05.029819,+0.20,-0.13,-0.76,51.53684,-0.0129195
2026-06-01T10:50:05.120977,-1.53,-0.71,-1.40,51.53684,-0.0129195
2026-06-01T10:50:05.210477,+0.15,+0.29,-0.65,51.53684,-0.0129195
2026-06-01T10:50:05.241080,+0.06,+0.18,-0.97,51.53684,-0.0129195
2026-06-01T10:50:05.300937,+0.14,+0.05,-0.79,51.53684,-0.0129195
2026-06-01T10:50:05.358872,-0.22,-0.06,-1.08,51.5368085,-0.0129002
2026-06-01T10:50:05.451024,+0.22,-0.09,-1.16,51.5368085,-0.0129002
2026-06-01T10:50:05.511102,+0.12,+0.10,-0.86,51.5368085,-0.0129002
2026-06-01T10:50:05.571631,-0.25,-0.16,-0.93,51.5368085,-0.0129002
2026-06-01T10:50:05.631090,+0.34,+0.15,-0.93,51.5368085,-0.0129002
2026-06-01T10:50:05.720376,-0.19,+0.10,-1.09,51.5368085,-0.0129002
2026-06-01T10:50:05.780878,-0.01,+0.03,-0.89,51.5368085,-0.0129002
2026-06-01T10:50:05.841722,+0.11,-0.04,-1.12,51.5368085,-0.0129002
2026-06-01T10:50:05.900352,-0.01,+0.07,-0.94,51.5368085,-0.0129002
2026-06-01T10:50:05.960114,+0.20,-0.36,-0.67,51.5368085,-0.0129002
2026-06-01T10:50:06.051478,+0.26,+0.08,-0.80,51.5368085,-0.0129002
2026-06-01T10:50:06.111085,-0.11,-0.06,-1.22,51.5368085,-0.0129002
2026-06-01T10:50:06.168377,+0.18,-0.05,-0.99,51.5368085,-0.0129002
2026-06-01T10:50:06.231013,-0.01,+0.13,-1.08,51.5368085,-0.0129002
2026-06-01T10:50:06.290675,+0.09,+0.13,-0.90,51.5368085,-0.0129002
2026-06-01T10:50:06.382903,+0.01,+0.02,-1.19,51.5367781,-0.0128699
2026-06-01T10:50:06.440294,-0.02,-0.16,-0.96,51.5367781,-0.0128699
2026-06-01T10:50:06.499972,+0.01,+0.23,-0.92,51.5367781,-0.0128699
2026-06-01T10:50:06.589493,+0.05,+0.00,-0.99,51.5367781,-0.0128699
2026-06-01T10:50:06.619697,+0.23,+0.20,-1.01,51.5367781,-0.0128699
2026-06-01T10:50:06.741330,-0.09,-0.19,-0.94,51.5367781,-0.0128699
2026-06-01T10:50:06.773205,+0.19,+0.08,-1.02,51.5367781,-0.0128699
2026-06-01T10:50:06.830704,+0.27,+0.00,-1.04,51.5367781,-0.0128699
2026-06-01T10:50:06.892639,+0.04,-0.09,-0.96,51.5367781,-0.0128699
2026-06-01T10:50:06.950686,-0.03,-0.15,-1.06,51.5367781,-0.0128699
2026-06-01T10:50:07.040378,+0.30,+0.08,-1.00,51.5367781,-0.0128699
2026-06-01T10:50:07.100495,+0.19,-0.04,-0.88,51.5367781,-0.0128699
2026-06-01T10:50:07.160869,-0.29,-0.08,-1.05,51.5367781,-0.0128699
2026-06-01T10:50:07.250836,+0.22,+0.13,-1.11,51.5367781,-0.0128699
2026-06-01T10:50:07.278903,-0.17,+0.06,-1.13,51.5367781,-0.0128699
2026-06-01T10:50:07.370807,+0.21,+0.10,-1.07,51.5367519,-0.012838
2026-06-01T10:50:07.429460,+0.21,+0.08,-0.95,51.5367519,-0.012838
2026-06-01T10:50:07.491193,-0.25,+0.02,-0.99,51.5367519,-0.012838
2026-06-01T10:50:07.549254,+0.22,+0.13,-1.03,51.5367519,-0.012838
2026-06-01T10:50:07.613278,+0.14,-0.00,-0.79,51.5367519,-0.012838
2026-06-01T10:50:07.701521,-0.14,-0.09,-0.95,51.5367519,-0.012838
2026-06-01T10:50:07.760715,+0.10,+0.06,-0.94,51.5367519,-0.012838
2026-06-01T10:50:07.820927,+0.18,+0.04,-1.11,51.5367519,-0.012838
2026-06-01T10:50:07.880314,+0.03,-0.02,-0.85,51.5367519,-0.012838
2026-06-01T10:50:07.970929,-0.06,+0.05,-0.98,51.5367519,-0.012838
2026-06-01T10:50:08.031783,-0.21,-0.22,-0.89,51.5367519,-0.012838
2026-06-01T10:50:08.091171,+0.26,+0.11,-1.10,51.5367519,-0.012838
2026-06-01T10:50:08.150608,-0.02,-0.23,-0.93,51.5367519,-0.012838
2026-06-01T10:50:08.240645,+0.04,-0.07,-0.70,51.5367519,-0.012838
2026-06-01T10:50:08.300242,-0.04,-0.04,-1.04,51.5367519,-0.012838
2026-06-01T10:50:08.420762,+0.28,+0.07,-1.00,51.5367307,-0.0128013
2026-06-01T10:50:08.421576,+0.04,-0.03,-1.00,51.5367307,-0.0128013
2026-06-01T10:50:08.480112,+0.25,+0.10,-0.97,51.5367307,-0.0128013
2026-06-01T10:50:08.631367,+0.14,-0.05,-1.04,51.5367307,-0.0128013
2026-06-01T10:50:08.632299,+0.05,-0.01,-0.92,51.5367307,-0.0128013
2026-06-01T10:50:08.691103,-0.11,-0.23,-1.15,51.5367307,-0.0128013
2026-06-01T10:50:08.750796,+0.18,-0.06,-1.08,51.5367307,-0.0128013
2026-06-01T10:50:08.810234,+0.14,+0.04,-0.85,51.5367307,-0.0128013
2026-06-01T10:50:08.901231,-0.02,-0.15,-0.91,51.5367307,-0.0128013
2026-06-01T10:50:08.962206,+0.16,+0.00,-0.92,51.5367307,-0.0128013
2026-06-01T10:50:09.020725,-0.18,-0.21,-1.11,51.5367307,-0.0128013
2026-06-01T10:50:09.082084,+0.42,+0.30,-1.09,51.5367307,-0.0128013
2026-06-01T10:50:09.141111,-0.32,-0.19,-1.12,51.5367307,-0.0128013
2026-06-01T10:50:09.229681,+0.52,+0.18,-1.15,51.5367307,-0.0128013
2026-06-01T10:50:09.291474,+0.40,+0.43,-0.43,51.5367307,-0.0128013
2026-06-01T10:50:09.349631,-0.63,-0.52,-0.84,51.5367085,-0.0127642
2026-06-01T10:50:09.409911,+0.23,+0.48,-1.38,51.5367085,-0.0127642
2026-06-01T10:50:09.471277,-0.13,+0.15,-0.93,51.5367085,-0.0127642
2026-06-01T10:50:09.560538,-0.10,-0.01,-1.08,51.5367085,-0.0127642
2026-06-01T10:50:09.620084,-0.02,-0.00,-0.86,51.5367085,-0.0127642
2026-06-01T10:50:09.679202,+0.52,+0.59,-0.66,51.5367085,-0.0127642
2026-06-01T10:50:09.740702,-0.47,+0.04,-1.13,51.5367085,-0.0127642
2026-06-01T10:50:09.803328,+0.08,+0.19,-1.41,51.5367085,-0.0127642
2026-06-01T10:50:09.892067,-0.17,-0.12,-1.05,51.5367085,-0.0127642
2026-06-01T10:50:09.952756,+0.31,+0.10,-0.97,51.5367085,-0.0127642
2026-06-01T10:50:10.011118,-0.15,-0.23,-0.69,51.5367085,-0.0127642
2026-06-01T10:50:10.070537,+0.20,+0.20,-0.98,51.5367085,-0.0127642
2026-06-01T10:50:10.160876,+0.40,+0.38,-0.93,51.5367085,-0.0127642
2026-06-01T10:50:10.219844,+0.82,+0.52,-1.40,51.5367085,-0.0127642
2026-06-01T10:50:10.280508,-0.24,-0.33,-0.95,51.5367085,-0.0127642
2026-06-01T10:50:10.341868,+0.06,+0.08,-1.02,51.5366885,-0.0127234
2026-06-01T10:50:10.400401,+0.31,+0.03,-0.91,51.5366885,-0.0127234
2026-06-01T10:50:10.489182,-0.23,-0.28,-1.20,51.5366885,-0.0127234
2026-06-01T10:50:10.549970,+0.49,+0.18,-1.01,51.5366885,-0.0127234
2026-06-01T10:50:10.610148,-0.01,-0.06,-1.00,51.5366885,-0.0127234
2026-06-01T10:50:10.669945,-0.02,-0.13,-1.05,51.5366885,-0.0127234
2026-06-01T10:50:10.731304,+0.32,+0.30,-0.83,51.5366885,-0.0127234
2026-06-01T10:50:10.820798,-0.25,-0.09,-1.11,51.5366885,-0.0127234
2026-06-01T10:50:10.880837,+0.16,+0.03,-1.06,51.5366885,-0.0127234
2026-06-01T10:50:10.940147,+0.15,+0.09,-1.09,51.5366885,-0.0127234
2026-06-01T10:50:11.000640,+0.07,+0.08,-0.84,51.5366885,-0.0127234
2026-06-01T10:50:11.061227,+0.07,+0.14,-0.55,51.5366885,-0.0127234
2026-06-01T10:50:11.151004,-0.39,-0.34,-1.37,51.5366885,-0.0127234
2026-06-01T10:50:11.210396,+0.33,+0.10,-1.06,51.5366885,-0.0127234
2026-06-01T10:50:11.270400,-0.10,-0.19,-0.98,51.5366885,-0.0127234
2026-06-01T10:50:11.333194,+0.47,+0.40,-0.83,51.5366885,-0.0127234
2026-06-01T10:50:11.389101,-0.62,-0.28,-1.09,51.5366696,-0.0126886
2026-06-01T10:50:11.480826,+0.34,+0.16,-1.07,51.5366696,-0.0126886
2026-06-01T10:50:11.540636,+0.24,+0.25,-0.81,51.5366696,-0.0126886
2026-06-01T10:50:11.599950,-0.03,-0.28,-0.93,51.5366696,-0.0126886
2026-06-01T10:50:11.660685,+0.17,-0.08,-0.83,51.5366696,-0.0126886
2026-06-01T10:50:11.720781,+0.18,+0.04,-0.98,51.5366696,-0.0126886
2026-06-01T10:50:11.811900,+0.22,-0.29,-1.02,51.5366696,-0.0126886
2026-06-01T10:50:11.870750,-0.89,-0.16,-1.46,51.5366696,-0.0126886
2026-06-01T10:50:11.930442,-0.04,+0.12,-0.63,51.5366696,-0.0126886
2026-06-01T10:50:11.990553,-0.07,-0.04,-0.86,51.5366696,-0.0126886
2026-06-01T10:50:12.081201,+0.26,+0.22,-0.99,51.5366696,-0.0126886
2026-06-01T10:50:12.141134,+0.05,-0.24,-1.13,51.5366696,-0.0126886
2026-06-01T10:50:12.201161,-0.20,-0.28,-1.35,51.5366696,-0.0126886
2026-06-01T10:50:12.260557,+0.23,+0.45,-0.78,51.5366696,-0.0126886
2026-06-01T10:50:12.349155,+0.22,+0.04,-0.99,51.5366467,-0.0126594
2026-06-01T10:50:12.409880,-0.09,-0.23,-0.84,51.5366467,-0.0126594
2026-06-01T10:50:12.470326,+0.13,+0.42,-0.94,51.5366467,-0.0126594
2026-06-01T10:50:12.530594,+0.22,+0.01,-1.37,51.5366467,-0.0126594
2026-06-01T10:50:12.590714,-0.00,+0.03,-1.06,51.5366467,-0.0126594
2026-06-01T10:50:12.680488,+0.04,-0.09,-0.88,51.5366467,-0.0126594
2026-06-01T10:50:12.744346,-0.07,-0.00,-0.93,51.5366467,-0.0126594
2026-06-01T10:50:12.800034,+0.46,-0.02,-1.08,51.5366467,-0.0126594
2026-06-01T10:50:12.861178,+0.02,-0.04,-1.07,51.5366467,-0.0126594
2026-06-01T10:50:12.920459,-0.19,+0.07,-1.11,51.5366467,-0.0126594
2026-06-01T10:50:13.011749,+0.28,+0.05,-0.85,51.5366467,-0.0126594
2026-06-01T10:50:13.070829,+0.03,+0.18,-1.08,51.5366467,-0.0126594
2026-06-01T10:50:13.160198,+0.04,-0.01,-0.98,51.5366467,-0.0126594
2026-06-01T10:50:13.190944,+0.15,+0.08,-0.96,51.5366467,-0.0126594
2026-06-01T10:50:13.250008,-0.16,-0.17,-1.08,51.5366467,-0.0126594
2026-06-01T10:50:13.340586,+0.43,+0.27,-0.95,51.5366467,-0.0126594
2026-06-01T10:50:13.401375,+0.10,-0.06,-1.10,51.5366226,-0.0126308
2026-06-01T10:50:13.461025,-0.25,-0.08,-1.09,51.5366226,-0.0126308
2026-06-01T10:50:13.521256,+0.10,+0.19,-0.94,51.5366226,-0.0126308
2026-06-01T10:50:13.580511,+0.30,+0.22,-1.08,51.5366226,-0.0126308
2026-06-01T10:50:13.672231,-0.02,-0.07,-0.95,51.5366226,-0.0126308
2026-06-01T10:50:13.730327,+0.07,-0.00,-1.15,51.5366226,-0.0126308
2026-06-01T10:50:13.791,+0.22,+0.01,-0.96,51.5366226,-0.0126308
2026-06-01T10:50:13.852415,-0.13,+0.06,-1.02,51.5366226,-0.0126308
2026-06-01T10:50:13.910491,+0.04,+0.08,-1.05,51.5366226,-0.0126308
2026-06-01T10:50:14.000699,+0.56,+0.05,-0.97,51.5366226,-0.0126308
2026-06-01T10:50:14.059940,-0.04,-0.06,-0.90,51.5366226,-0.0126308
2026-06-01T10:50:14.120382,+0.02,-0.26,-1.00,51.5366226,-0.0126308
2026-06-01T10:50:14.180520,+0.26,-0.07,-1.05,51.5366226,-0.0126308
2026-06-01T10:50:14.270285,+0.00,+0.01,-0.81,51.5366226,-0.0126308
2026-06-01T10:50:14.329651,+0.15,-0.11,-0.80,51.5365985,-0.0126052
2026-06-01T10:50:14.389795,-0.05,-0.26,-0.93,51.5365985,-0.0126052
2026-06-01T10:50:14.451953,+0.33,+0.19,-1.05,51.5365985,-0.0126052
2026-06-01T10:50:14.508871,+0.23,-0.02,-0.90,51.5365985,-0.0126052
2026-06-01T10:50:14.599871,-0.22,-0.18,-1.21,51.5365985,-0.0126052
2026-06-01T10:50:14.661126,+0.16,+0.07,-0.94,51.5365985,-0.0126052
2026-06-01T10:50:14.720724,+0.02,+0.02,-1.04,51.5365985,-0.0126052
2026-06-01T10:50:14.782324,-0.05,+0.04,-0.97,51.5365985,-0.0126052
2026-06-01T10:50:14.844632,+0.15,+0.08,-0.98,51.5365985,-0.0126052
2026-06-01T10:50:14.930895,+0.05,+0.11,-1.06,51.5365985,-0.0126052
2026-06-01T10:50:14.990158,+0.18,+0.05,-0.86,51.5365985,-0.0126052
2026-06-01T10:50:15.050673,-0.23,+0.04,-1.25,51.5365985,-0.0126052
2026-06-01T10:50:15.109657,-0.05,-0.09,-0.99,51.5365985,-0.0126052
2026-06-01T10:50:15.168884,+0.41,+0.21,-0.96,51.5365985,-0.0126052
2026-06-01T10:50:15.259265,-0.07,-0.19,-0.86,51.5365985,-0.0126052
2026-06-01T10:50:15.318827,+0.21,-0.05,-0.94,51.5365985,-0.0126052
2026-06-01T10:50:15.381100,+0.16,-0.01,-0.88,51.5365711,-0.0125806
2026-06-01T10:50:15.440342,-0.25,-0.43,-1.16,51.5365711,-0.0125806
2026-06-01T10:50:15.499104,+0.42,+0.26,-1.11,51.5365711,-0.0125806
2026-06-01T10:50:15.590385,+0.18,-0.02,-0.92,51.5365711,-0.0125806
2026-06-01T10:50:15.650775,-0.12,-0.07,-1.10,51.5365711,-0.0125806
2026-06-01T10:50:15.710341,+0.69,+0.16,-1.03,51.5365711,-0.0125806
2026-06-01T10:50:15.770603,-0.03,-0.15,-1.07,51.5365711,-0.0125806
2026-06-01T10:50:15.830894,-0.14,+0.10,-1.03,51.5365711,-0.0125806
2026-06-01T10:50:15.920934,+0.16,+0.28,-0.95,51.5365711,-0.0125806
2026-06-01T10:50:15.980032,+0.18,-0.04,-0.93,51.5365711,-0.0125806
2026-06-01T10:50:16.041236,-0.23,+0.06,-0.89,51.5365711,-0.0125806
2026-06-01T10:50:16.100483,+0.07,+0.04,-1.13,51.5365711,-0.0125806
2026-06-01T10:50:16.190167,+0.06,+0.18,-1.15,51.5365711,-0.0125806
2026-06-01T10:50:16.249819,+0.02,-0.07,-1.00,51.5365711,-0.0125806
2026-06-01T10:50:16.310022,-0.21,+0.08,-0.98,51.5365711,-0.0125806
2026-06-01T10:50:16.368393,+0.51,+0.40,-0.96,51.5365428,-0.012554
2026-06-01T10:50:16.461268,-0.23,-0.30,-1.02,51.5365428,-0.012554
2026-06-01T10:50:16.521345,-0.02,-0.15,-0.93,51.5365428,-0.012554
2026-06-01T10:50:16.580793,+0.22,+0.16,-1.08,51.5365428,-0.012554
2026-06-01T10:50:16.640685,+0.17,+0.07,-0.96,51.5365428,-0.012554
2026-06-01T10:50:16.699468,-0.12,-0.08,-1.04,51.5365428,-0.012554
2026-06-01T10:50:16.759563,+0.32,+0.21,-0.94,51.5365428,-0.012554
2026-06-01T10:50:16.850388,+0.05,+0.00,-0.94,51.5365428,-0.012554
2026-06-01T10:50:16.910866,+0.07,-0.01,-0.91,51.5365428,-0.012554
2026-06-01T10:50:16.971171,+0.19,-0.03,-0.99,51.5365428,-0.012554
2026-06-01T10:50:17.030224,-0.10,-0.03,-1.03,51.5365428,-0.012554
2026-06-01T10:50:17.120154,+0.07,+0.08,-0.94,51.5365428,-0.012554
2026-06-01T10:50:17.180696,+0.02,+0.19,-0.91,51.5365428,-0.012554
2026-06-01T10:50:17.240648,-0.12,-0.01,-1.09,51.5365428,-0.012554
2026-06-01T10:50:17.300425,+0.37,+0.15,-1.07,51.5365428,-0.012554
2026-06-01T10:50:17.360118,-0.02,-0.17,-0.89,51.5365172,-0.0125227
2026-06-01T10:50:17.451765,+0.55,+0.35,-0.47,51.5365172,-0.0125227
2026-06-01T10:50:17.510532,+0.48,+0.35,-1.23,51.5365172,-0.0125227
2026-06-01T10:50:17.571844,-0.10,-0.15,-0.86,51.5365172,-0.0125227
2026-06-01T10:50:17.631972,-0.55,-0.31,-1.29,51.5365172,-0.0125227
2026-06-01T10:50:17.691256,+0.17,-0.12,-1.15,51.5365172,-0.0125227
2026-06-01T10:50:17.781110,+0.22,+0.20,-0.72,51.5365172,-0.0125227
2026-06-01T10:50:17.840687,-0.25,-0.04,-0.93,51.5365172,-0.0125227
2026-06-01T10:50:17.899260,+0.47,+0.31,-1.00,51.5365172,-0.0125227
2026-06-01T10:50:17.960987,+0.68,+0.28,-0.98,51.5365172,-0.0125227
2026-06-01T10:50:18.021260,-0.11,-0.24,-0.87,51.5365172,-0.0125227
2026-06-01T10:50:18.111207,+0.11,-0.23,-0.90,51.5365172,-0.0125227
2026-06-01T10:50:18.170391,+0.20,+0.14,-0.96,51.5365172,-0.0125227
2026-06-01T10:50:18.229798,-0.09,-0.21,-1.05,51.5365172,-0.0125227
2026-06-01T10:50:18.290284,-0.03,-0.01,-1.11,51.5365172,-0.0125227
2026-06-01T10:50:18.380676,+0.36,+0.15,-0.81,51.5364919,-0.0124934
2026-06-01T10:50:18.440051,-0.31,-0.31,-1.08,51.5364919,-0.0124934
2026-06-01T10:50:18.499947,+0.29,+0.03,-0.92,51.5364919,-0.0124934
2026-06-01T10:50:18.559821,-0.00,-0.18,-1.12,51.5364919,-0.0124934
2026-06-01T10:50:18.620795,+0.16,+0.09,-0.97,51.5364919,-0.0124934
2026-06-01T10:50:18.710881,+0.03,+0.05,-1.04,51.5364919,-0.0124934
2026-06-01T10:50:18.770893,+0.09,-0.02,-0.97,51.5364919,-0.0124934
2026-06-01T10:50:18.830677,+0.01,-0.08,-1.14,51.5364919,-0.0124934
2026-06-01T10:50:18.891138,-0.06,+0.16,-0.91,51.5364919,-0.0124934
2026-06-01T10:50:18.949851,+0.00,+0.07,-1.08,51.5364919,-0.0124934
2026-06-01T10:50:19.041767,+0.33,+0.19,-0.92,51.5364919,-0.0124934
2026-06-01T10:50:19.100127,+0.06,-0.05,-0.86,51.5364919,-0.0124934
2026-06-01T10:50:19.161374,-0.07,-0.11,-1.08,51.5364919,-0.0124934
2026-06-01T10:50:19.219437,+0.38,+0.06,-1.06,51.5364919,-0.0124934
2026-06-01T10:50:19.279475,+0.11,+0.07,-0.98,51.5364919,-0.0124934
2026-06-01T10:50:19.369512,-0.15,+0.05,-0.99,51.5364631,-0.012468
2026-06-01T10:50:19.430122,-0.24,+0.04,-1.03,51.5364631,-0.012468
2026-06-01T10:50:19.491086,+0.29,+0.22,-1.07,51.5364631,-0.012468
2026-06-01T10:50:19.550377,+0.04,-0.11,-1.05,51.5364631,-0.012468
2026-06-01T10:50:19.613543,-0.01,+0.06,-1.00,51.5364631,-0.012468
2026-06-01T10:50:19.699555,+0.06,+0.07,-0.93,51.5364631,-0.012468
2026-06-01T10:50:19.759541,+0.09,+0.08,-0.98,51.5364631,-0.012468
2026-06-01T10:50:19.820148,-0.09,-0.03,-1.00,51.5364631,-0.012468
2026-06-01T10:50:19.879527,+0.11,+0.04,-0.90,51.5364631,-0.012468
2026-06-01T10:50:19.942221,-0.07,-0.08,-1.16,51.5364631,-0.012468
2026-06-01T10:50:20.028863,+0.27,+0.08,-0.90,51.5364631,-0.012468
2026-06-01T10:50:20.089933,-0.20,-0.18,-0.95,51.5364631,-0.012468
2026-06-01T10:50:20.150856,+0.36,-0.05,-0.90,51.5364631,-0.012468
2026-06-01T10:50:20.209705,+0.07,-0.14,-0.99,51.5364631,-0.012468
2026-06-01T10:50:20.300303,+0.15,+0.21,-0.96,51.5364631,-0.012468
2026-06-01T10:50:20.359315,-0.05,-0.02,-1.17,51.5364406,-0.0124363
2026-06-01T10:50:20.420722,+0.35,+0.12,-0.85,51.5364406,-0.0124363
2026-06-01T10:50:20.480607,-0.11,-0.11,-1.02,51.5364406,-0.0124363
2026-06-01T10:50:20.570118,+0.02,+0.22,-1.01,51.5364406,-0.0124363
2026-06-01T10:50:20.637250,-0.02,+0.07,-1.05,51.5364406,-0.0124363
2026-06-01T10:50:20.688389,+0.17,-0.09,-1.01,51.5364406,-0.0124363
2026-06-01T10:50:20.749897,-0.06,+0.05,-0.85,51.5364406,-0.0124363
2026-06-01T10:50:20.811277,-0.08,-0.16,-1.02,51.5364406,-0.0124363
2026-06-01T10:50:20.901604,+0.25,+0.19,-1.04,51.5364406,-0.0124363
2026-06-01T10:50:20.961930,-0.06,-0.14,-1.02,51.5364406,-0.0124363
2026-06-01T10:50:21.020786,+0.32,+0.10,-0.96,51.5364406,-0.0124363
2026-06-01T10:50:21.081554,-0.13,-0.17,-1.03,51.5364406,-0.0124363
2026-06-01T10:50:21.138963,+0.31,-0.05,-1.01,51.5364406,-0.0124363
2026-06-01T10:50:21.230772,-0.23,-0.16,-1.11,51.5364406,-0.0124363
2026-06-01T10:50:21.290405,+0.17,+0.15,-1.04,51.5364406,-0.0124363
2026-06-01T10:50:21.349585,+0.37,+0.12,-0.93,51.5364168,-0.0124036
2026-06-01T10:50:21.410893,-0.19,-0.15,-1.21,51.5364168,-0.0124036
2026-06-01T10:50:21.470868,+0.28,+0.03,-0.88,51.5364168,-0.0124036
2026-06-01T10:50:21.560811,+0.24,+0.08,-1.03,51.5364168,-0.0124036
2026-06-01T10:50:21.621205,-0.19,-0.05,-0.96,51.5364168,-0.0124036
2026-06-01T10:50:21.680399,+0.31,+0.17,-1.03,51.5364168,-0.0124036
2026-06-01T10:50:21.740183,-0.18,-0.12,-1.04,51.5364168,-0.0124036
2026-06-01T10:50:21.800759,+0.04,+0.11,-1.04,51.5364168,-0.0124036
2026-06-01T10:50:21.893911,+0.17,-0.09,-0.89,51.5364168,-0.0124036
2026-06-01T10:50:21.951168,+0.16,-0.09,-0.86,51.5364168,-0.0124036
2026-06-01T10:50:22.010574,-0.12,-0.32,-1.23,51.5364168,-0.0124036
2026-06-01T10:50:22.070533,-0.03,-0.15,-1.66,51.5364168,-0.0124036
2026-06-01T10:50:22.130361,+0.05,+0.00,-1.10,51.5364168,-0.0124036
2026-06-01T10:50:22.219518,-0.20,-0.01,-1.37,51.5364168,-0.0124036
2026-06-01T10:50:22.279798,+0.52,+0.26,-0.42,51.5364168,-0.0124036
2026-06-01T10:50:22.341458,-0.26,-0.04,-1.15,51.5363916,-0.0123814
2026-06-01T10:50:22.400389,+0.58,+0.09,-0.81,51.5363916,-0.0123814
2026-06-01T10:50:22.491595,+0.46,+0.33,-1.18,51.5363916,-0.0123814
2026-06-01T10:50:22.551720,-0.49,-0.25,-1.53,51.5363916,-0.0123814
2026-06-01T10:50:22.610628,+0.63,+0.09,-1.12,51.5363916,-0.0123814
2026-06-01T10:50:22.671518,-0.24,-0.35,-0.80,51.5363916,-0.0123814
2026-06-01T10:50:22.731126,+0.60,+0.13,-0.79,51.5363916,-0.0123814
2026-06-01T10:50:22.821048,-0.04,+0.02,-1.02,51.5363916,-0.0123814
2026-06-01T10:50:22.880600,-0.35,-0.02,-1.33,51.5363916,-0.0123814
2026-06-01T10:50:22.944683,-0.32,-0.01,-1.14,51.5363916,-0.0123814
2026-06-01T10:50:22.998939,+0.23,+0.24,-1.00,51.5363916,-0.0123814
2026-06-01T10:50:23.061220,+0.22,-0.01,-0.90,51.5363916,-0.0123814
2026-06-01T10:50:23.150682,-0.44,-0.29,-0.96,51.5363916,-0.0123814
2026-06-01T10:50:23.210860,-0.06,-0.03,-1.14,51.5363916,-0.0123814
2026-06-01T10:50:23.269815,+0.15,+0.02,-1.16,51.5363916,-0.0123814
2026-06-01T10:50:23.334318,+0.15,+0.01,-0.96,51.5363916,-0.0123814
2026-06-01T10:50:23.391551,+0.10,+0.05,-0.91,51.5363672,-0.0123613
2026-06-01T10:50:23.479482,+0.10,+0.08,-0.92,51.5363672,-0.0123613
2026-06-01T10:50:23.539700,-0.11,+0.12,-1.14,51.5363672,-0.0123613
2026-06-01T10:50:23.600476,+0.09,+0.01,-1.16,51.5363672,-0.0123613
2026-06-01T10:50:23.661203,-0.05,-0.06,-1.01,51.5363672,-0.0123613
2026-06-01T10:50:23.720127,-0.15,-0.28,-0.77,51.5363672,-0.0123613
2026-06-01T10:50:23.810641,-0.40,-0.33,-0.76,51.5363672,-0.0123613
2026-06-01T10:50:23.870263,+0.15,-0.33,-0.98,51.5363672,-0.0123613
2026-06-01T10:50:23.930941,+0.08,-0.05,-1.01,51.5363672,-0.0123613
2026-06-01T10:50:23.990447,+0.01,-0.15,-1.04,51.5363672,-0.0123613
2026-06-01T10:50:24.050322,-0.00,-0.05,-1.03,51.5363672,-0.0123613
2026-06-01T10:50:24.140077,+0.02,-0.04,-0.91,51.5363672,-0.0123613
2026-06-01T10:50:24.200882,+0.05,+0.00,-1.05,51.5363672,-0.0123613
2026-06-01T10:50:24.261203,-0.00,-0.16,-0.87,51.5363672,-0.0123613
2026-06-01T10:50:24.319987,-0.14,-0.19,-0.94,51.5363672,-0.0123613
2026-06-01T10:50:24.378776,+0.12,-0.05,-0.97,51.5363441,-0.0123513
2026-06-01T10:50:24.470773,-0.14,-0.14,-0.92,51.5363441,-0.0123513
2026-06-01T10:50:24.532190,-0.26,-0.45,-1.10,51.5363441,-0.0123513
2026-06-01T10:50:24.590881,+0.10,-0.11,-1.17,51.5363441,-0.0123513
2026-06-01T10:50:24.650705,+0.13,+0.27,-1.06,51.5363441,-0.0123513
2026-06-01T10:50:24.742051,-0.04,-0.02,-0.82,51.5363441,-0.0123513
2026-06-01T10:50:24.800555,-0.33,-0.38,-0.90,51.5363441,-0.0123513
2026-06-01T10:50:24.861993,-0.12,-0.12,-1.07,51.5363441,-0.0123513
